"","subject","session","block","runsheet","trial","exposure","stimulus","valence","action","robot","rune","rune_set","correct","choice","rt","accuracy","sham","outcome","total_keys"
"1",1059,2,3,"NA",142,1,170,"lose","go","gal","a","elianto",1,1,495,1,0,"0",1
"2",1059,2,3,"NA",146,2,170,"lose","go","gal","a","elianto",1,1,496,1,0,"0",1
"3",1059,2,3,"NA",150,3,170,"lose","go","gal","a","elianto",1,0,NA,0,1,"0",0
"4",1059,2,3,"NA",154,4,170,"lose","go","gal","a","elianto",1,1,538,1,0,"0",1
"5",1059,2,3,"NA",159,5,170,"lose","go","gal","a","elianto",1,1,608,1,0,"0",1
"6",1059,2,3,"NA",164,6,170,"lose","go","gal","a","elianto",1,1,1345,1,0,"0",1
"7",1059,2,3,"NA",165,7,170,"lose","go","gal","a","elianto",1,1,641.000000000233,1,0,"0",1
"8",1059,2,3,"NA",172,8,170,"lose","go","gal","a","elianto",1,1,753,1,0,"0",1
"9",1059,2,3,"NA",174,9,170,"lose","go","gal","a","elianto",1,1,689,1,0,"0",1
"10",1059,2,3,"NA",179,10,170,"lose","go","gal","a","elianto",1,1,720,1,1,"-10",1
"11",1059,2,3,"NA",181,11,170,"lose","go","gal","a","elianto",1,1,1000,1,0,"0",1
"12",1059,2,3,"NA",192,12,170,"lose","go","gal","a","elianto",1,0,NA,0,0,"-10",0
"13",1059,2,2,"NA",78,1,70,"lose","no-go","ngal","b","elianto",0,0,NA,1,0,"0",0
"14",1059,2,2,"NA",83,2,70,"lose","no-go","ngal","b","elianto",0,1,523,0,1,"0",1
"15",1059,2,2,"NA",85,3,70,"lose","no-go","ngal","b","elianto",0,1,504.999999999767,0,0,"-10",1
"16",1059,2,2,"NA",90,4,70,"lose","no-go","ngal","b","elianto",0,1,865,0,1,"0",1
"17",1059,2,2,"NA",95,5,70,"lose","no-go","ngal","b","elianto",0,0,NA,1,0,"0",0
"18",1059,2,2,"NA",97,6,70,"lose","no-go","ngal","b","elianto",0,1,1081,0,0,"-10",1
"19",1059,2,2,"NA",101,7,70,"lose","no-go","ngal","b","elianto",0,0,NA,1,0,"0",0
"20",1059,2,2,"NA",105,8,70,"lose","no-go","ngal","b","elianto",0,0,NA,1,1,"-10",0
"21",1059,2,2,"NA",110,9,70,"lose","no-go","ngal","b","elianto",0,0,NA,1,0,"0",0
"22",1059,2,2,"NA",119,10,70,"lose","no-go","ngal","b","elianto",0,1,1296,0,1,"0",1
"23",1059,2,2,"NA",128,11,70,"lose","no-go","ngal","b","elianto",0,1,522,0,0,"-10",1
"24",1059,2,2,"NA",131,12,70,"lose","no-go","ngal","b","elianto",0,0,NA,1,0,"0",0
"25",1059,2,2,"NA",136,13,70,"lose","no-go","ngal","b","elianto",0,0,NA,1,0,"0",0
"26",1059,2,2,"NA",140,14,70,"lose","no-go","ngal","b","elianto",0,1,776.999999999767,0,0,"-10",1
"27",1059,2,2,"NA",71,1,60,"win","go","gw","c","elianto",1,1,610,1,0,"+10",1
"28",1059,2,2,"NA",73,2,60,"win","go","gw","c","elianto",1,1,473,1,0,"+10",1
"29",1059,2,2,"NA",79,3,60,"win","go","gw","c","elianto",1,1,498,1,0,"+10",1
"30",1059,2,2,"NA",84,4,60,"win","go","gw","c","elianto",1,1,512.000000000233,1,0,"+10",1
"31",1059,2,2,"NA",88,5,60,"win","go","gw","c","elianto",1,1,577,1,1,"0",1
"32",1059,2,2,"NA",91,6,60,"win","go","gw","c","elianto",1,1,906,1,0,"+10",1
"33",1059,2,2,"NA",93,7,60,"win","go","gw","c","elianto",1,1,490,1,0,"+10",1
"34",1059,2,2,"NA",99,8,60,"win","go","gw","c","elianto",1,1,1346,1,0,"+10",1
"35",1059,2,2,"NA",104,9,60,"win","go","gw","c","elianto",1,1,1993.00000000023,1,0,"+10",1
"36",1059,2,2,"NA",108,10,60,"win","go","gw","c","elianto",1,1,1209,1,1,"0",1
"37",1059,2,2,"NA",111,11,60,"win","go","gw","c","elianto",1,1,417,1,0,"+10",1
"38",1059,2,2,"NA",114,12,60,"win","go","gw","c","elianto",1,0,NA,0,1,"+10",0
"39",1059,2,2,"NA",120,13,60,"win","go","gw","c","elianto",1,1,689,1,0,"+10",1
"40",1059,2,2,"NA",121,14,60,"win","go","gw","c","elianto",1,1,913,1,1,"0",1
"41",1059,2,3,"NA",213,1,120,"win","go","gw","d","elianto",1,0,NA,0,1,"+10",0
"42",1059,2,3,"NA",219,2,120,"win","go","gw","d","elianto",1,1,1203,1,0,"+10",1
"43",1059,2,3,"NA",221,3,120,"win","go","gw","d","elianto",1,1,568,1,0,"+10",1
"44",1059,2,3,"NA",227,4,120,"win","go","gw","d","elianto",1,1,562,1,0,"+10",1
"45",1059,2,3,"NA",231,5,120,"win","go","gw","d","elianto",1,1,583.999999999767,1,0,"+10",1
"46",1059,2,3,"NA",235,6,120,"win","go","gw","d","elianto",1,0,NA,0,0,"0",0
"47",1059,2,3,"NA",238,7,120,"win","go","gw","d","elianto",1,1,1233.00000000023,1,0,"+10",1
"48",1059,2,3,"NA",243,8,120,"win","go","gw","d","elianto",1,0,NA,0,0,"0",0
"49",1059,2,3,"NA",247,9,120,"win","go","gw","d","elianto",1,1,831.999999999767,1,0,"+10",1
"50",1059,2,3,"NA",252,10,120,"win","go","gw","d","elianto",1,1,665.999999999767,1,0,"+10",1
"51",1059,2,3,"NA",253,11,120,"win","go","gw","d","elianto",1,1,593,1,0,"+10",1
"52",1059,2,3,"NA",260,12,120,"win","go","gw","d","elianto",1,1,784.999999999767,1,0,"+10",1
"53",1059,2,3,"NA",204,1,140,"lose","no-go","ngal","e","elianto",0,1,778,0,1,"0",1
"54",1059,2,3,"NA",206,2,140,"lose","no-go","ngal","e","elianto",0,1,968,0,0,"-10",1
"55",1059,2,3,"NA",212,3,140,"lose","no-go","ngal","e","elianto",0,0,NA,1,0,"0",0
"56",1059,2,3,"NA",214,4,140,"lose","no-go","ngal","e","elianto",0,0,NA,1,0,"0",0
"57",1059,2,3,"NA",220,5,140,"lose","no-go","ngal","e","elianto",0,0,NA,1,0,"0",0
"58",1059,2,3,"NA",222,6,140,"lose","no-go","ngal","e","elianto",0,0,NA,1,1,"-10",0
"59",1059,2,3,"NA",241,7,140,"lose","no-go","ngal","e","elianto",0,0,NA,1,0,"0",0
"60",1059,2,3,"NA",245,8,140,"lose","no-go","ngal","e","elianto",0,1,943.999999999767,0,0,"-10",1
"61",1059,2,3,"NA",251,9,140,"lose","no-go","ngal","e","elianto",0,1,816,0,0,"-10",1
"62",1059,2,3,"NA",255,10,140,"lose","no-go","ngal","e","elianto",0,1,888,0,0,"-10",1
"63",1059,2,3,"NA",258,11,140,"lose","no-go","ngal","e","elianto",0,1,1328,0,0,"-10",1
"64",1059,2,2,"NA",96,1,90,"win","no-go","ngw","f","elianto",0,1,522,0,0,"0",1
"65",1059,2,2,"NA",100,2,90,"win","no-go","ngw","f","elianto",0,1,767,0,0,"0",1
"66",1059,2,2,"NA",103,3,90,"win","no-go","ngw","f","elianto",0,1,1809,0,0,"0",1
"67",1059,2,2,"NA",107,4,90,"win","no-go","ngw","f","elianto",0,1,730,0,0,"0",1
"68",1059,2,2,"NA",112,5,90,"win","no-go","ngw","f","elianto",0,1,882,0,0,"0",1
"69",1059,2,2,"NA",116,6,90,"win","no-go","ngw","f","elianto",0,0,NA,1,0,"+10",0
"70",1059,2,2,"NA",118,7,90,"win","no-go","ngw","f","elianto",0,1,434,0,1,"+10",1
"71",1059,2,2,"NA",123,8,90,"win","no-go","ngw","f","elianto",0,0,NA,1,0,"+10",0
"72",1059,2,2,"NA",126,9,90,"win","no-go","ngw","f","elianto",0,0,NA,1,0,"+10",0
"73",1059,2,2,"NA",130,10,90,"win","no-go","ngw","f","elianto",0,0,NA,1,0,"+10",0
"74",1059,2,2,"NA",133,11,90,"win","no-go","ngw","f","elianto",0,0,NA,1,0,"+10",0
"75",1059,2,2,"NA",137,12,90,"win","no-go","ngw","f","elianto",0,0,NA,1,0,"+10",0
"76",1059,2,3,"NA",141,1,180,"lose","no-go","ngal","g","elianto",0,0,NA,1,1,"-10",0
"77",1059,2,3,"NA",145,2,180,"lose","no-go","ngal","g","elianto",0,1,848,0,1,"0",1
"78",1059,2,3,"NA",149,3,180,"lose","no-go","ngal","g","elianto",0,0,NA,1,0,"0",0
"79",1059,2,3,"NA",156,4,180,"lose","no-go","ngal","g","elianto",0,1,1112.00000000023,0,1,"0",1
"80",1059,2,3,"NA",160,5,180,"lose","no-go","ngal","g","elianto",0,1,337,0,0,"-10",1
"81",1059,2,3,"NA",161,6,180,"lose","no-go","ngal","g","elianto",0,1,289,0,1,"0",1
"82",1059,2,3,"NA",167,7,180,"lose","no-go","ngal","g","elianto",0,0,NA,1,0,"0",0
"83",1059,2,3,"NA",169,8,180,"lose","no-go","ngal","g","elianto",0,1,376,0,0,"-10",1
"84",1059,2,3,"NA",176,9,180,"lose","no-go","ngal","g","elianto",0,1,521,0,0,"-10",1
"85",1059,2,3,"NA",177,10,180,"lose","no-go","ngal","g","elianto",0,0,NA,1,0,"0",0
"86",1059,2,3,"NA",183,11,180,"lose","no-go","ngal","g","elianto",0,0,NA,1,0,"0",0
"87",1059,2,3,"NA",185,12,180,"lose","no-go","ngal","g","elianto",0,0,NA,1,0,"0",0
"88",1059,2,3,"NA",194,13,180,"lose","no-go","ngal","g","elianto",0,0,NA,1,0,"0",0
"89",1059,2,3,"NA",197,14,180,"lose","no-go","ngal","g","elianto",0,0,NA,1,0,"0",0
"90",1059,2,3,"NA",201,15,180,"lose","no-go","ngal","g","elianto",0,0,NA,1,0,"0",0
"91",1059,2,2,"NA",22,1,20,"lose","go","gal","h","elianto",1,1,505,1,0,"0",1
"92",1059,2,2,"NA",25,2,20,"lose","go","gal","h","elianto",1,1,273,1,0,"0",1
"93",1059,2,2,"NA",29,3,20,"lose","go","gal","h","elianto",1,1,345,1,0,"0",1
"94",1059,2,2,"NA",33,4,20,"lose","go","gal","h","elianto",1,1,314,1,0,"0",1
"95",1059,2,2,"NA",40,5,20,"lose","go","gal","h","elianto",1,1,218,1,0,"0",1
"96",1059,2,2,"NA",43,6,20,"lose","go","gal","h","elianto",1,1,147,1,0,"0",1
"97",1059,2,2,"NA",48,7,20,"lose","go","gal","h","elianto",1,1,328.000000000233,1,1,"-10",1
"98",1059,2,2,"NA",52,8,20,"lose","go","gal","h","elianto",1,1,433,1,0,"0",1
"99",1059,2,2,"NA",59,9,20,"lose","go","gal","h","elianto",1,1,848.999999999767,1,0,"0",1
"100",1059,2,2,"NA",62,10,20,"lose","go","gal","h","elianto",1,0,NA,0,0,"-10",0
"101",1059,2,2,"NA",66,11,20,"lose","go","gal","h","elianto",1,0,NA,0,1,"0",0
"102",1059,2,2,"NA",70,12,20,"lose","go","gal","h","elianto",1,0,NA,0,0,"-10",0
"103",1059,2,2,"NA",74,13,20,"lose","go","gal","h","elianto",1,0,NA,0,0,"-10",0
"104",1059,2,2,"NA",80,14,20,"lose","go","gal","h","elianto",1,0,NA,0,1,"0",0
"105",1059,2,3,"NA",224,1,130,"win","go","gw","j","elianto",1,1,543.999999999767,1,1,"0",1
"106",1059,2,3,"NA",225,2,130,"win","go","gw","j","elianto",1,1,608,1,1,"0",1
"107",1059,2,3,"NA",232,3,130,"win","go","gw","j","elianto",1,1,513.000000000233,1,1,"0",1
"108",1059,2,3,"NA",234,4,130,"win","go","gw","j","elianto",1,1,642,1,0,"+10",1
"109",1059,2,3,"NA",237,5,130,"win","go","gw","j","elianto",1,1,552.000000000233,1,0,"+10",1
"110",1059,2,3,"NA",242,6,130,"win","go","gw","j","elianto",1,0,NA,0,0,"0",0
"111",1059,2,3,"NA",246,7,130,"win","go","gw","j","elianto",1,1,537,1,0,"+10",1
"112",1059,2,3,"NA",249,8,130,"win","go","gw","j","elianto",1,1,1497,1,0,"+10",1
"113",1059,2,3,"NA",256,9,130,"win","go","gw","j","elianto",1,1,520.999999999534,1,1,"0",1
"114",1059,2,3,"NA",259,10,130,"win","go","gw","j","elianto",1,1,663,1,1,"0",1
"115",1059,2,3,"NA",143,1,190,"win","no-go","ngw","l","elianto",0,1,552,0,1,"+10",1
"116",1059,2,3,"NA",148,2,190,"win","no-go","ngw","l","elianto",0,1,401,0,0,"0",1
"117",1059,2,3,"NA",151,3,190,"win","no-go","ngw","l","elianto",0,0,NA,1,0,"+10",0
"118",1059,2,3,"NA",155,4,190,"win","no-go","ngw","l","elianto",0,1,497,0,1,"+10",1
"119",1059,2,3,"NA",158,5,190,"win","no-go","ngw","l","elianto",0,1,498,0,0,"0",1
"120",1059,2,3,"NA",163,6,190,"win","no-go","ngw","l","elianto",0,1,544.999999999767,0,0,"0",1
"121",1059,2,3,"NA",166,7,190,"win","no-go","ngw","l","elianto",0,1,530,0,1,"+10",1
"122",1059,2,3,"NA",171,8,190,"win","no-go","ngw","l","elianto",0,1,401.999999999767,0,0,"0",1
"123",1059,2,3,"NA",173,9,190,"win","no-go","ngw","l","elianto",0,1,449,0,0,"0",1
"124",1059,2,3,"NA",180,10,190,"win","no-go","ngw","l","elianto",0,1,785,0,0,"0",1
"125",1059,2,3,"NA",184,11,190,"win","no-go","ngw","l","elianto",0,1,497,0,1,"+10",1
"126",1059,2,3,"NA",188,12,190,"win","no-go","ngw","l","elianto",0,1,1328,0,0,"0",1
"127",1059,2,3,"NA",191,13,190,"win","no-go","ngw","l","elianto",0,1,545.999999999767,0,0,"0",1
"128",1059,2,3,"NA",195,14,190,"win","no-go","ngw","l","elianto",0,1,543.000000000233,0,0,"0",1
"129",1059,2,2,"NA",21,1,40,"lose","no-go","ngal","m","elianto",0,1,636,0,0,"-10",1
"130",1059,2,2,"NA",28,2,40,"lose","no-go","ngal","m","elianto",0,1,506,0,0,"-10",1
"131",1059,2,2,"NA",31,3,40,"lose","no-go","ngal","m","elianto",0,1,786,0,0,"-10",1
"132",1059,2,2,"NA",34,4,40,"lose","no-go","ngal","m","elianto",0,1,201.000000000233,0,0,"-10",1
"133",1059,2,2,"NA",38,5,40,"lose","no-go","ngal","m","elianto",0,1,280,0,0,"-10",1
"134",1059,2,2,"NA",42,6,40,"lose","no-go","ngal","m","elianto",0,1,328.999999999767,0,0,"-10",1
"135",1059,2,2,"NA",47,7,40,"lose","no-go","ngal","m","elianto",0,0,NA,1,1,"-10",0
"136",1059,2,2,"NA",50,8,40,"lose","no-go","ngal","m","elianto",0,1,273,0,0,"-10",1
"137",1059,2,2,"NA",53,9,40,"lose","no-go","ngal","m","elianto",0,1,329,0,0,"-10",1
"138",1059,2,2,"NA",57,10,40,"lose","no-go","ngal","m","elianto",0,1,712.000000000233,0,0,"-10",1
"139",1059,2,2,"NA",102,1,100,"win","no-go","ngw","n","elianto",0,1,947,0,0,"0",1
"140",1059,2,2,"NA",106,2,100,"win","no-go","ngw","n","elianto",0,0,NA,1,0,"+10",0
"141",1059,2,2,"NA",109,3,100,"win","no-go","ngw","n","elianto",0,0,NA,1,1,"0",0
"142",1059,2,2,"NA",115,4,100,"win","no-go","ngw","n","elianto",0,1,650,0,0,"0",1
"143",1059,2,2,"NA",122,5,100,"win","no-go","ngw","n","elianto",0,1,465,0,1,"+10",1
"144",1059,2,2,"NA",127,6,100,"win","no-go","ngw","n","elianto",0,0,NA,1,0,"+10",0
"145",1059,2,2,"NA",129,7,100,"win","no-go","ngw","n","elianto",0,0,NA,1,1,"0",0
"146",1059,2,2,"NA",135,8,100,"win","no-go","ngw","n","elianto",0,0,NA,1,1,"0",0
"147",1059,2,2,"NA",139,9,100,"win","no-go","ngw","n","elianto",0,0,NA,1,1,"0",0
"148",1059,2,3,"NA",178,1,160,"win","go","gw","p","elianto",1,1,658,1,0,"+10",1
"149",1059,2,3,"NA",182,2,160,"win","go","gw","p","elianto",1,1,490,1,0,"+10",1
"150",1059,2,3,"NA",186,3,160,"win","go","gw","p","elianto",1,1,1287,1,0,"+10",1
"151",1059,2,3,"NA",189,4,160,"win","go","gw","p","elianto",1,1,545,1,0,"+10",1
"152",1059,2,3,"NA",196,5,160,"win","go","gw","p","elianto",1,1,544.999999999767,1,1,"0",1
"153",1059,2,3,"NA",198,6,160,"win","go","gw","p","elianto",1,1,434,1,0,"+10",1
"154",1059,2,3,"NA",200,7,160,"win","go","gw","p","elianto",1,1,488.000000000233,1,1,"0",1
"155",1059,2,3,"NA",202,8,160,"win","go","gw","p","elianto",1,1,473,1,0,"+10",1
"156",1059,2,3,"NA",207,9,160,"win","go","gw","p","elianto",1,1,1033,1,0,"+10",1
"157",1059,2,3,"NA",209,10,160,"win","go","gw","p","elianto",1,1,1144,1,1,"0",1
"158",1059,2,3,"NA",228,11,160,"win","go","gw","p","elianto",1,1,609.999999999767,1,0,"+10",1
"159",1059,2,2,"NA",23,1,30,"win","go","gw","r","elianto",1,1,297,1,1,"0",1
"160",1059,2,2,"NA",27,2,30,"win","go","gw","r","elianto",1,1,214.999999999767,1,0,"+10",1
"161",1059,2,2,"NA",30,3,30,"win","go","gw","r","elianto",1,1,176.000000000233,1,0,"+10",1
"162",1059,2,2,"NA",36,4,30,"win","go","gw","r","elianto",1,1,272,1,0,"+10",1
"163",1059,2,2,"NA",39,5,30,"win","go","gw","r","elianto",1,1,186,1,0,"+10",1
"164",1059,2,2,"NA",44,6,30,"win","go","gw","r","elianto",1,0,NA,0,0,"0",0
"165",1059,2,2,"NA",51,7,30,"win","go","gw","r","elianto",1,1,338,1,0,"+10",1
"166",1059,2,2,"NA",54,8,30,"win","go","gw","r","elianto",1,1,785,1,0,"+10",1
"167",1059,2,2,"NA",58,9,30,"win","go","gw","r","elianto",1,1,474,1,0,"+10",1
"168",1059,2,2,"NA",61,10,30,"win","go","gw","r","elianto",1,1,264.999999999767,1,0,"+10",1
"169",1059,2,2,"NA",68,11,30,"win","go","gw","r","elianto",1,1,795.000000000233,1,0,"+10",1
"170",1059,2,2,"NA",69,12,30,"win","go","gw","r","elianto",1,1,735.999999999767,1,0,"+10",1
"171",1059,2,2,"NA",76,13,30,"win","go","gw","r","elianto",1,1,401.000000000233,1,0,"+10",1
"172",1059,2,3,"NA",187,1,150,"win","no-go","ngw","s","elianto",0,1,1192,0,0,"0",1
"173",1059,2,3,"NA",190,2,150,"win","no-go","ngw","s","elianto",0,1,577,0,1,"+10",1
"174",1059,2,3,"NA",193,3,150,"win","no-go","ngw","s","elianto",0,1,881,0,0,"0",1
"175",1059,2,3,"NA",199,4,150,"win","no-go","ngw","s","elianto",0,1,537,0,0,"0",1
"176",1059,2,3,"NA",203,5,150,"win","no-go","ngw","s","elianto",0,1,480,0,0,"0",1
"177",1059,2,3,"NA",205,6,150,"win","no-go","ngw","s","elianto",0,1,753,0,0,"0",1
"178",1059,2,3,"NA",211,7,150,"win","no-go","ngw","s","elianto",0,1,1529,0,0,"0",1
"179",1059,2,3,"NA",216,8,150,"win","no-go","ngw","s","elianto",0,1,762.999999999767,0,0,"0",1
"180",1059,2,3,"NA",217,9,150,"win","no-go","ngw","s","elianto",0,1,503,0,0,"0",1
"181",1059,2,3,"NA",223,10,150,"win","no-go","ngw","s","elianto",0,1,802.000000000233,0,1,"+10",1
"182",1059,2,3,"NA",230,11,150,"win","no-go","ngw","s","elianto",0,1,432,0,0,"0",1
"183",1059,2,3,"NA",236,12,150,"win","no-go","ngw","s","elianto",0,1,690,0,0,"0",1
"184",1059,2,3,"NA",240,13,150,"win","no-go","ngw","s","elianto",0,1,458,0,0,"0",1
"185",1059,2,2,"NA",82,1,80,"lose","go","gal","t","elianto",1,0,NA,0,0,"-10",0
"186",1059,2,2,"NA",87,2,80,"lose","go","gal","t","elianto",1,1,696,1,0,"0",1
"187",1059,2,2,"NA",92,3,80,"lose","go","gal","t","elianto",1,0,NA,0,0,"-10",0
"188",1059,2,2,"NA",94,4,80,"lose","go","gal","t","elianto",1,0,NA,0,0,"-10",0
"189",1059,2,2,"NA",98,5,80,"lose","go","gal","t","elianto",1,0,NA,0,0,"-10",0
"190",1059,2,2,"NA",113,6,80,"lose","go","gal","t","elianto",1,0,NA,0,1,"0",0
"191",1059,2,2,"NA",117,7,80,"lose","go","gal","t","elianto",1,0,NA,0,0,"-10",0
"192",1059,2,2,"NA",124,8,80,"lose","go","gal","t","elianto",1,0,NA,0,0,"-10",0
"193",1059,2,2,"NA",125,9,80,"lose","go","gal","t","elianto",1,0,NA,0,1,"0",0
"194",1059,2,2,"NA",132,10,80,"lose","go","gal","t","elianto",1,0,NA,0,0,"-10",0
"195",1059,2,2,"NA",134,11,80,"lose","go","gal","t","elianto",1,0,NA,0,0,"-10",0
"196",1059,2,2,"NA",138,12,80,"lose","go","gal","t","elianto",1,1,700,1,0,"0",1
"197",1059,2,3,"NA",144,1,200,"lose","go","gal","u","elianto",1,1,681.000000000233,1,0,"0",1
"198",1059,2,3,"NA",147,2,200,"lose","go","gal","u","elianto",1,1,440,1,0,"0",1
"199",1059,2,3,"NA",152,3,200,"lose","go","gal","u","elianto",1,1,976,1,0,"0",1
"200",1059,2,3,"NA",153,4,200,"lose","go","gal","u","elianto",1,0,NA,0,0,"-10",0
"201",1059,2,3,"NA",157,5,200,"lose","go","gal","u","elianto",1,1,617.000000000233,1,0,"0",1
"202",1059,2,3,"NA",162,6,200,"lose","go","gal","u","elianto",1,1,368.000000000233,1,0,"0",1
"203",1059,2,3,"NA",168,7,200,"lose","go","gal","u","elianto",1,1,487.999999999767,1,0,"0",1
"204",1059,2,3,"NA",170,8,200,"lose","go","gal","u","elianto",1,1,376.000000000233,1,0,"0",1
"205",1059,2,3,"NA",175,9,200,"lose","go","gal","u","elianto",1,1,329,1,1,"-10",1
"206",1059,2,3,"NA",208,1,110,"lose","go","gal","w","elianto",1,1,905,1,0,"0",1
"207",1059,2,3,"NA",210,2,110,"lose","go","gal","w","elianto",1,0,NA,0,0,"-10",0
"208",1059,2,3,"NA",215,3,110,"lose","go","gal","w","elianto",1,0,NA,0,1,"0",0
"209",1059,2,3,"NA",218,4,110,"lose","go","gal","w","elianto",1,0,NA,0,1,"0",0
"210",1059,2,3,"NA",226,5,110,"lose","go","gal","w","elianto",1,0,NA,0,0,"-10",0
"211",1059,2,3,"NA",229,6,110,"lose","go","gal","w","elianto",1,1,737.000000000233,1,1,"-10",1
"212",1059,2,3,"NA",233,7,110,"lose","go","gal","w","elianto",1,1,1415.99999999977,1,0,"0",1
"213",1059,2,3,"NA",239,8,110,"lose","go","gal","w","elianto",1,0,NA,0,0,"-10",0
"214",1059,2,3,"NA",244,9,110,"lose","go","gal","w","elianto",1,1,881,1,0,"0",1
"215",1059,2,3,"NA",248,10,110,"lose","go","gal","w","elianto",1,0,NA,0,0,"-10",0
"216",1059,2,3,"NA",250,11,110,"lose","go","gal","w","elianto",1,0,NA,0,1,"0",0
"217",1059,2,3,"NA",254,12,110,"lose","go","gal","w","elianto",1,1,1247.99999999977,1,0,"0",1
"218",1059,2,3,"NA",257,13,110,"lose","go","gal","w","elianto",1,1,841.000000000233,1,0,"0",1
"219",1059,2,2,"NA",24,1,10,"lose","no-go","ngal","y","elianto",0,1,320.999999999767,0,0,"-10",1
"220",1059,2,2,"NA",26,2,10,"lose","no-go","ngal","y","elianto",0,1,417.000000000233,0,0,"-10",1
"221",1059,2,2,"NA",32,3,10,"lose","no-go","ngal","y","elianto",0,1,472,0,0,"-10",1
"222",1059,2,2,"NA",35,4,10,"lose","no-go","ngal","y","elianto",0,1,264,0,0,"-10",1
"223",1059,2,2,"NA",37,5,10,"lose","no-go","ngal","y","elianto",0,1,352,0,1,"0",1
"224",1059,2,2,"NA",41,6,10,"lose","no-go","ngal","y","elianto",0,1,288,0,0,"-10",1
"225",1059,2,2,"NA",45,7,10,"lose","no-go","ngal","y","elianto",0,1,321,0,1,"0",1
"226",1059,2,2,"NA",55,8,10,"lose","no-go","ngal","y","elianto",0,1,369,0,1,"0",1
"227",1059,2,2,"NA",64,9,10,"lose","no-go","ngal","y","elianto",0,0,NA,1,0,"0",0
"228",1059,2,2,"NA",67,10,10,"lose","no-go","ngal","y","elianto",0,0,NA,1,0,"0",0
"229",1059,2,2,"NA",46,1,50,"win","no-go","ngw","z","elianto",0,1,658,0,0,"0",1
"230",1059,2,2,"NA",49,2,50,"win","no-go","ngw","z","elianto",0,1,321,0,0,"0",1
"231",1059,2,2,"NA",56,3,50,"win","no-go","ngw","z","elianto",0,1,416,0,0,"0",1
"232",1059,2,2,"NA",60,4,50,"win","no-go","ngw","z","elianto",0,1,298,0,0,"0",1
"233",1059,2,2,"NA",63,5,50,"win","no-go","ngw","z","elianto",0,1,626,0,0,"0",1
"234",1059,2,2,"NA",65,6,50,"win","no-go","ngw","z","elianto",0,0,NA,1,0,"+10",0
"235",1059,2,2,"NA",72,7,50,"win","no-go","ngw","z","elianto",0,1,512,0,0,"0",1
"236",1059,2,2,"NA",75,8,50,"win","no-go","ngw","z","elianto",0,1,618,0,0,"0",1
"237",1059,2,2,"NA",77,9,50,"win","no-go","ngw","z","elianto",0,1,495.999999999767,0,0,"0",1
"238",1059,2,2,"NA",81,10,50,"win","no-go","ngw","z","elianto",0,1,505,0,0,"0",1
"239",1059,2,2,"NA",86,11,50,"win","no-go","ngw","z","elianto",0,1,529,0,0,"0",1
"240",1059,2,2,"NA",89,12,50,"win","no-go","ngw","z","elianto",0,1,536,0,0,"0",1
"241",1143,2,2,"NA",21,1,170,"lose","go","gal","a","elianto",1,1,1559,1,1,"-10",1
"242",1143,2,2,"NA",27,2,170,"lose","go","gal","a","elianto",1,0,NA,0,1,"0",0
"243",1143,2,2,"NA",29,3,170,"lose","go","gal","a","elianto",1,0,NA,0,0,"-10",0
"244",1143,2,2,"NA",36,4,170,"lose","go","gal","a","elianto",1,0,NA,0,0,"-10",0
"245",1143,2,2,"NA",40,5,170,"lose","go","gal","a","elianto",1,0,NA,0,0,"-10",0
"246",1143,2,2,"NA",44,6,170,"lose","go","gal","a","elianto",1,1,1151,1,0,"0",1
"247",1143,2,2,"NA",48,7,170,"lose","go","gal","a","elianto",1,1,1567,1,0,"0",1
"248",1143,2,2,"NA",52,8,170,"lose","go","gal","a","elianto",1,1,1072,1,0,"0",1
"249",1143,2,2,"NA",56,9,170,"lose","go","gal","a","elianto",1,1,985,1,1,"-10",1
"250",1143,2,2,"NA",57,10,170,"lose","go","gal","a","elianto",1,0,NA,0,0,"-10",0
"251",1143,2,2,"NA",63,11,170,"lose","go","gal","a","elianto",1,0,NA,0,1,"0",0
"252",1143,2,2,"NA",69,12,170,"lose","go","gal","a","elianto",1,0,NA,0,1,"0",0
"253",1143,2,3,"NA",197,1,70,"lose","no-go","ngal","b","elianto",0,1,612,0,0,"-10",1
"254",1143,2,3,"NA",202,2,70,"lose","no-go","ngal","b","elianto",0,1,1676,0,0,"-10",1
"255",1143,2,3,"NA",206,3,70,"lose","no-go","ngal","b","elianto",0,1,753,0,0,"-10",2
"256",1143,2,3,"NA",212,4,70,"lose","no-go","ngal","b","elianto",0,0,NA,1,0,"0",0
"257",1143,2,3,"NA",213,5,70,"lose","no-go","ngal","b","elianto",0,0,NA,1,1,"-10",0
"258",1143,2,3,"NA",217,6,70,"lose","no-go","ngal","b","elianto",0,0,NA,1,0,"0",0
"259",1143,2,3,"NA",224,7,70,"lose","no-go","ngal","b","elianto",0,1,973,0,1,"0",1
"260",1143,2,3,"NA",226,8,70,"lose","no-go","ngal","b","elianto",0,1,1207,0,0,"-10",1
"261",1143,2,3,"NA",232,9,70,"lose","no-go","ngal","b","elianto",0,1,434,0,0,"-10",1
"262",1143,2,3,"NA",239,10,70,"lose","no-go","ngal","b","elianto",0,0,NA,1,0,"0",0
"263",1143,2,3,"NA",248,11,70,"lose","no-go","ngal","b","elianto",0,1,2005,0,1,"0",1
"264",1143,2,3,"NA",250,12,70,"lose","no-go","ngal","b","elianto",0,0,NA,1,1,"-10",0
"265",1143,2,3,"NA",255,13,70,"lose","no-go","ngal","b","elianto",0,0,NA,1,0,"0",0
"266",1143,2,3,"NA",257,14,70,"lose","no-go","ngal","b","elianto",0,0,NA,1,0,"0",0
"267",1143,2,3,"NA",190,1,60,"win","go","gw","c","elianto",1,1,1239,1,0,"+10",1
"268",1143,2,3,"NA",193,2,60,"win","go","gw","c","elianto",1,1,1346,1,0,"+10",1
"269",1143,2,3,"NA",199,3,60,"win","go","gw","c","elianto",1,1,292,1,0,"+10",1
"270",1143,2,3,"NA",201,4,60,"win","go","gw","c","elianto",1,1,1040,1,0,"+10",1
"271",1143,2,3,"NA",205,5,60,"win","go","gw","c","elianto",1,0,NA,0,0,"0",0
"272",1143,2,3,"NA",210,6,60,"win","go","gw","c","elianto",1,1,1380,1,0,"+10",1
"273",1143,2,3,"NA",216,7,60,"win","go","gw","c","elianto",1,1,1318,1,0,"+10",1
"274",1143,2,3,"NA",219,8,60,"win","go","gw","c","elianto",1,1,573,1,1,"0",1
"275",1143,2,3,"NA",223,9,60,"win","go","gw","c","elianto",1,1,758,1,0,"+10",1
"276",1143,2,3,"NA",225,10,60,"win","go","gw","c","elianto",1,1,493,1,0,"+10",1
"277",1143,2,3,"NA",229,11,60,"win","go","gw","c","elianto",1,1,1210,1,0,"+10",1
"278",1143,2,3,"NA",235,12,60,"win","go","gw","c","elianto",1,0,NA,0,1,"+10",0
"279",1143,2,3,"NA",240,13,60,"win","go","gw","c","elianto",1,0,NA,0,1,"+10",0
"280",1143,2,3,"NA",241,14,60,"win","go","gw","c","elianto",1,0,NA,0,0,"0",0
"281",1143,2,2,"NA",96,1,120,"win","go","gw","d","elianto",1,1,1000,1,0,"+10",1
"282",1143,2,2,"NA",100,2,120,"win","go","gw","d","elianto",1,1,1124,1,0,"+10",1
"283",1143,2,2,"NA",102,3,120,"win","go","gw","d","elianto",1,1,1102,1,0,"+10",1
"284",1143,2,2,"NA",105,4,120,"win","go","gw","d","elianto",1,1,1013,1,0,"+10",1
"285",1143,2,2,"NA",110,5,120,"win","go","gw","d","elianto",1,1,473,1,1,"0",1
"286",1143,2,2,"NA",114,6,120,"win","go","gw","d","elianto",1,1,445,1,0,"+10",1
"287",1143,2,2,"NA",120,7,120,"win","go","gw","d","elianto",1,1,1140,1,0,"+10",1
"288",1143,2,2,"NA",121,8,120,"win","go","gw","d","elianto",1,1,785,1,0,"+10",1
"289",1143,2,2,"NA",127,9,120,"win","go","gw","d","elianto",1,1,852,1,0,"+10",1
"290",1143,2,2,"NA",130,10,120,"win","go","gw","d","elianto",1,1,923,1,0,"+10",1
"291",1143,2,2,"NA",134,11,120,"win","go","gw","d","elianto",1,1,1340,1,0,"+10",1
"292",1143,2,2,"NA",140,12,120,"win","go","gw","d","elianto",1,1,944,1,0,"+10",1
"293",1143,2,2,"NA",83,1,140,"lose","no-go","ngal","e","elianto",0,0,NA,1,1,"-10",1
"294",1143,2,2,"NA",87,2,140,"lose","no-go","ngal","e","elianto",0,1,1004,0,0,"-10",1
"295",1143,2,2,"NA",90,3,140,"lose","no-go","ngal","e","elianto",0,0,NA,1,0,"0",0
"296",1143,2,2,"NA",93,4,140,"lose","no-go","ngal","e","elianto",0,1,1369,0,1,"0",1
"297",1143,2,2,"NA",97,5,140,"lose","no-go","ngal","e","elianto",0,0,NA,1,0,"0",0
"298",1143,2,2,"NA",103,6,140,"lose","no-go","ngal","e","elianto",0,0,NA,1,0,"0",0
"299",1143,2,2,"NA",123,7,140,"lose","no-go","ngal","e","elianto",0,1,1053,0,0,"-10",1
"300",1143,2,2,"NA",126,8,140,"lose","no-go","ngal","e","elianto",0,0,NA,1,1,"-10",0
"301",1143,2,2,"NA",131,9,140,"lose","no-go","ngal","e","elianto",0,0,NA,1,1,"-10",0
"302",1143,2,2,"NA",133,10,140,"lose","no-go","ngal","e","elianto",0,1,1869,0,1,"0",1
"303",1143,2,2,"NA",139,11,140,"lose","no-go","ngal","e","elianto",0,1,838,0,1,"0",1
"304",1143,2,3,"NA",215,1,90,"win","no-go","ngw","f","elianto",0,0,NA,1,0,"+10",1
"305",1143,2,3,"NA",220,2,90,"win","no-go","ngw","f","elianto",0,1,1406,0,0,"0",1
"306",1143,2,3,"NA",221,3,90,"win","no-go","ngw","f","elianto",0,0,NA,1,0,"+10",0
"307",1143,2,3,"NA",228,4,90,"win","no-go","ngw","f","elianto",0,0,NA,1,0,"+10",1
"308",1143,2,3,"NA",230,5,90,"win","no-go","ngw","f","elianto",0,1,766,0,0,"0",1
"309",1143,2,3,"NA",236,6,90,"win","no-go","ngw","f","elianto",0,1,801,0,0,"0",1
"310",1143,2,3,"NA",237,7,90,"win","no-go","ngw","f","elianto",0,0,NA,1,0,"+10",1
"311",1143,2,3,"NA",243,8,90,"win","no-go","ngw","f","elianto",0,1,775,0,0,"0",1
"312",1143,2,3,"NA",247,9,90,"win","no-go","ngw","f","elianto",0,1,631,0,0,"0",1
"313",1143,2,3,"NA",252,10,90,"win","no-go","ngw","f","elianto",0,1,760,0,0,"0",1
"314",1143,2,3,"NA",254,11,90,"win","no-go","ngw","f","elianto",0,1,1348,0,0,"0",1
"315",1143,2,3,"NA",258,12,90,"win","no-go","ngw","f","elianto",0,0,NA,1,0,"+10",0
"316",1143,2,2,"NA",22,1,180,"lose","no-go","ngal","g","elianto",0,0,NA,1,0,"0",0
"317",1143,2,2,"NA",25,2,180,"lose","no-go","ngal","g","elianto",0,1,1869,0,0,"-10",1
"318",1143,2,2,"NA",30,3,180,"lose","no-go","ngal","g","elianto",0,0,NA,1,0,"0",0
"319",1143,2,2,"NA",35,4,180,"lose","no-go","ngal","g","elianto",0,1,1335,0,1,"0",1
"320",1143,2,2,"NA",37,5,180,"lose","no-go","ngal","g","elianto",0,1,947,0,0,"-10",1
"321",1143,2,2,"NA",42,6,180,"lose","no-go","ngal","g","elianto",0,1,895,0,0,"-10",1
"322",1143,2,2,"NA",46,7,180,"lose","no-go","ngal","g","elianto",0,1,784,0,0,"-10",1
"323",1143,2,2,"NA",51,8,180,"lose","no-go","ngal","g","elianto",0,0,NA,1,0,"0",0
"324",1143,2,2,"NA",54,9,180,"lose","no-go","ngal","g","elianto",0,1,1808,0,1,"0",1
"325",1143,2,2,"NA",60,10,180,"lose","no-go","ngal","g","elianto",0,1,1307,0,0,"-10",1
"326",1143,2,2,"NA",61,11,180,"lose","no-go","ngal","g","elianto",0,0,NA,1,1,"-10",0
"327",1143,2,2,"NA",65,12,180,"lose","no-go","ngal","g","elianto",0,1,1545,0,0,"-10",1
"328",1143,2,2,"NA",75,13,180,"lose","no-go","ngal","g","elianto",0,0,NA,1,0,"0",0
"329",1143,2,2,"NA",79,14,180,"lose","no-go","ngal","g","elianto",0,0,NA,1,0,"0",0
"330",1143,2,2,"NA",81,15,180,"lose","no-go","ngal","g","elianto",0,1,891,0,0,"-10",1
"331",1143,2,3,"NA",142,1,20,"lose","go","gal","h","elianto",1,1,778,1,0,"0",1
"332",1143,2,3,"NA",147,2,20,"lose","go","gal","h","elianto",1,1,631,1,1,"-10",1
"333",1143,2,3,"NA",149,3,20,"lose","go","gal","h","elianto",1,0,NA,0,0,"-10",0
"334",1143,2,3,"NA",156,4,20,"lose","go","gal","h","elianto",1,1,847,1,1,"-10",1
"335",1143,2,3,"NA",159,5,20,"lose","go","gal","h","elianto",1,1,755,1,0,"0",1
"336",1143,2,3,"NA",163,6,20,"lose","go","gal","h","elianto",1,1,937,1,0,"0",1
"337",1143,2,3,"NA",167,7,20,"lose","go","gal","h","elianto",1,1,1702,1,0,"0",1
"338",1143,2,3,"NA",172,8,20,"lose","go","gal","h","elianto",1,0,NA,0,0,"-10",0
"339",1143,2,3,"NA",179,9,20,"lose","go","gal","h","elianto",1,1,945,1,0,"0",1
"340",1143,2,3,"NA",182,10,20,"lose","go","gal","h","elianto",1,1,749,1,0,"0",1
"341",1143,2,3,"NA",185,11,20,"lose","go","gal","h","elianto",1,0,NA,0,0,"-10",1
"342",1143,2,3,"NA",189,12,20,"lose","go","gal","h","elianto",1,1,962,1,0,"0",1
"343",1143,2,3,"NA",195,13,20,"lose","go","gal","h","elianto",1,1,780,1,0,"0",1
"344",1143,2,3,"NA",200,14,20,"lose","go","gal","h","elianto",1,1,1039,1,0,"0",1
"345",1143,2,2,"NA",101,1,130,"win","go","gw","j","elianto",1,1,1493,1,1,"0",1
"346",1143,2,2,"NA",107,2,130,"win","go","gw","j","elianto",1,1,1072,1,0,"+10",1
"347",1143,2,2,"NA",111,3,130,"win","go","gw","j","elianto",1,1,1289,1,0,"+10",1
"348",1143,2,2,"NA",116,4,130,"win","go","gw","j","elianto",1,0,NA,0,0,"0",1
"349",1143,2,2,"NA",117,5,130,"win","go","gw","j","elianto",1,1,1982,1,1,"0",1
"350",1143,2,2,"NA",124,6,130,"win","go","gw","j","elianto",1,1,854,1,0,"+10",1
"351",1143,2,2,"NA",125,7,130,"win","go","gw","j","elianto",1,1,618,1,1,"0",1
"352",1143,2,2,"NA",132,8,130,"win","go","gw","j","elianto",1,1,989,1,0,"+10",1
"353",1143,2,2,"NA",135,9,130,"win","go","gw","j","elianto",1,1,1023,1,0,"+10",1
"354",1143,2,2,"NA",137,10,130,"win","go","gw","j","elianto",1,1,878,1,0,"+10",1
"355",1143,2,2,"NA",23,1,190,"win","no-go","ngw","l","elianto",0,1,1127,0,0,"0",1
"356",1143,2,2,"NA",26,2,190,"win","no-go","ngw","l","elianto",0,1,1082,0,0,"0",1
"357",1143,2,2,"NA",31,3,190,"win","no-go","ngw","l","elianto",0,1,1818,0,0,"0",1
"358",1143,2,2,"NA",34,4,190,"win","no-go","ngw","l","elianto",0,0,NA,1,1,"0",0
"359",1143,2,2,"NA",39,5,190,"win","no-go","ngw","l","elianto",0,1,1342,0,1,"+10",1
"360",1143,2,2,"NA",41,6,190,"win","no-go","ngw","l","elianto",0,1,988,0,0,"0",1
"361",1143,2,2,"NA",47,7,190,"win","no-go","ngw","l","elianto",0,1,1171,0,1,"+10",1
"362",1143,2,2,"NA",50,8,190,"win","no-go","ngw","l","elianto",0,1,1501,0,1,"+10",1
"363",1143,2,2,"NA",53,9,190,"win","no-go","ngw","l","elianto",0,1,1699,0,0,"0",1
"364",1143,2,2,"NA",59,10,190,"win","no-go","ngw","l","elianto",0,1,925,0,0,"0",1
"365",1143,2,2,"NA",64,11,190,"win","no-go","ngw","l","elianto",0,1,1505,0,0,"0",1
"366",1143,2,2,"NA",66,12,190,"win","no-go","ngw","l","elianto",0,1,762,0,0,"0",1
"367",1143,2,2,"NA",70,13,190,"win","no-go","ngw","l","elianto",0,1,1282,0,0,"0",1
"368",1143,2,2,"NA",74,14,190,"win","no-go","ngw","l","elianto",0,1,1605,0,0,"0",1
"369",1143,2,3,"NA",143,1,40,"lose","no-go","ngal","m","elianto",0,1,891,0,0,"-10",1
"370",1143,2,3,"NA",148,2,40,"lose","no-go","ngal","m","elianto",0,1,1000,0,0,"-10",1
"371",1143,2,3,"NA",151,3,40,"lose","no-go","ngal","m","elianto",0,0,NA,1,0,"0",1
"372",1143,2,3,"NA",154,4,40,"lose","no-go","ngal","m","elianto",0,1,1136,0,0,"-10",1
"373",1143,2,3,"NA",160,5,40,"lose","no-go","ngal","m","elianto",0,1,615,0,1,"0",1
"374",1143,2,3,"NA",161,6,40,"lose","no-go","ngal","m","elianto",0,1,1276,0,0,"-10",1
"375",1143,2,3,"NA",168,7,40,"lose","no-go","ngal","m","elianto",0,1,1391,0,0,"-10",1
"376",1143,2,3,"NA",170,8,40,"lose","no-go","ngal","m","elianto",0,0,NA,1,0,"0",0
"377",1143,2,3,"NA",175,9,40,"lose","no-go","ngal","m","elianto",0,1,936,0,1,"0",1
"378",1143,2,3,"NA",177,10,40,"lose","no-go","ngal","m","elianto",0,1,637,0,1,"0",1
"379",1143,2,3,"NA",222,1,100,"win","no-go","ngw","n","elianto",0,1,930,0,0,"0",1
"380",1143,2,3,"NA",227,2,100,"win","no-go","ngw","n","elianto",0,0,NA,1,0,"+10",1
"381",1143,2,3,"NA",231,3,100,"win","no-go","ngw","n","elianto",0,1,1428,0,0,"0",1
"382",1143,2,3,"NA",233,4,100,"win","no-go","ngw","n","elianto",0,0,NA,1,0,"+10",1
"383",1143,2,3,"NA",244,5,100,"win","no-go","ngw","n","elianto",0,1,1225,0,0,"0",1
"384",1143,2,3,"NA",246,6,100,"win","no-go","ngw","n","elianto",0,1,1689,0,0,"0",1
"385",1143,2,3,"NA",249,7,100,"win","no-go","ngw","n","elianto",0,1,699,0,0,"0",1
"386",1143,2,3,"NA",253,8,100,"win","no-go","ngw","n","elianto",0,1,850,0,0,"0",1
"387",1143,2,3,"NA",260,9,100,"win","no-go","ngw","n","elianto",0,1,911,0,0,"0",1
"388",1143,2,2,"NA",58,1,160,"win","go","gw","p","elianto",1,1,1308,1,1,"0",1
"389",1143,2,2,"NA",62,2,160,"win","go","gw","p","elianto",1,1,1135,1,0,"+10",1
"390",1143,2,2,"NA",68,3,160,"win","go","gw","p","elianto",1,1,979,1,0,"+10",1
"391",1143,2,2,"NA",72,4,160,"win","go","gw","p","elianto",1,0,NA,0,0,"0",0
"392",1143,2,2,"NA",73,5,160,"win","go","gw","p","elianto",1,1,943,1,0,"+10",1
"393",1143,2,2,"NA",78,6,160,"win","go","gw","p","elianto",1,0,NA,0,0,"0",0
"394",1143,2,2,"NA",80,7,160,"win","go","gw","p","elianto",1,1,898,1,1,"0",1
"395",1143,2,2,"NA",84,8,160,"win","go","gw","p","elianto",1,1,1123,1,0,"+10",1
"396",1143,2,2,"NA",85,9,160,"win","go","gw","p","elianto",1,1,637,1,0,"+10",1
"397",1143,2,2,"NA",91,10,160,"win","go","gw","p","elianto",1,1,1104,1,0,"+10",1
"398",1143,2,2,"NA",106,11,160,"win","go","gw","p","elianto",1,1,1625,1,0,"+10",1
"399",1143,2,3,"NA",144,1,30,"win","go","gw","r","elianto",1,1,865,1,0,"+10",1
"400",1143,2,3,"NA",146,2,30,"win","go","gw","r","elianto",1,1,747,1,0,"+10",1
"401",1143,2,3,"NA",150,3,30,"win","go","gw","r","elianto",1,1,715,1,0,"+10",1
"402",1143,2,3,"NA",153,4,30,"win","go","gw","r","elianto",1,1,1313,1,0,"+10",1
"403",1143,2,3,"NA",157,5,30,"win","go","gw","r","elianto",1,1,883,1,1,"0",1
"404",1143,2,3,"NA",164,6,30,"win","go","gw","r","elianto",1,1,1012,1,1,"0",1
"405",1143,2,3,"NA",171,7,30,"win","go","gw","r","elianto",1,1,943,1,0,"+10",1
"406",1143,2,3,"NA",174,8,30,"win","go","gw","r","elianto",1,1,1551,1,0,"+10",1
"407",1143,2,3,"NA",178,9,30,"win","go","gw","r","elianto",1,1,763,1,1,"0",1
"408",1143,2,3,"NA",183,10,30,"win","go","gw","r","elianto",1,1,972,1,0,"+10",1
"409",1143,2,3,"NA",187,11,30,"win","go","gw","r","elianto",1,1,620,1,1,"0",1
"410",1143,2,3,"NA",192,12,30,"win","go","gw","r","elianto",1,1,902,1,0,"+10",1
"411",1143,2,3,"NA",194,13,30,"win","go","gw","r","elianto",1,1,1156,1,1,"0",1
"412",1143,2,2,"NA",67,1,150,"win","no-go","ngw","s","elianto",0,1,1046,0,0,"0",1
"413",1143,2,2,"NA",71,2,150,"win","no-go","ngw","s","elianto",0,1,1156,0,1,"+10",1
"414",1143,2,2,"NA",76,3,150,"win","no-go","ngw","s","elianto",0,1,1080,0,0,"0",1
"415",1143,2,2,"NA",77,4,150,"win","no-go","ngw","s","elianto",0,0,NA,1,0,"+10",0
"416",1143,2,2,"NA",82,5,150,"win","no-go","ngw","s","elianto",0,1,871,0,0,"0",1
"417",1143,2,2,"NA",88,6,150,"win","no-go","ngw","s","elianto",0,1,923,0,0,"0",1
"418",1143,2,2,"NA",89,7,150,"win","no-go","ngw","s","elianto",0,1,707,0,0,"0",1
"419",1143,2,2,"NA",94,8,150,"win","no-go","ngw","s","elianto",0,1,1015,0,1,"+10",1
"420",1143,2,2,"NA",98,9,150,"win","no-go","ngw","s","elianto",0,1,1830,0,0,"0",1
"421",1143,2,2,"NA",104,10,150,"win","no-go","ngw","s","elianto",0,1,1072,0,0,"0",1
"422",1143,2,2,"NA",112,11,150,"win","no-go","ngw","s","elianto",0,1,727,0,0,"0",1
"423",1143,2,2,"NA",115,12,150,"win","no-go","ngw","s","elianto",0,1,960,0,1,"+10",1
"424",1143,2,2,"NA",119,13,150,"win","no-go","ngw","s","elianto",0,1,505,0,0,"0",1
"425",1143,2,3,"NA",203,1,80,"lose","go","gal","t","elianto",1,1,629,1,1,"-10",1
"426",1143,2,3,"NA",208,2,80,"lose","go","gal","t","elianto",1,0,NA,0,0,"-10",0
"427",1143,2,3,"NA",209,3,80,"lose","go","gal","t","elianto",1,1,888,1,0,"0",1
"428",1143,2,3,"NA",214,4,80,"lose","go","gal","t","elianto",1,1,1015,1,0,"0",1
"429",1143,2,3,"NA",218,5,80,"lose","go","gal","t","elianto",1,1,1214,1,0,"0",1
"430",1143,2,3,"NA",234,6,80,"lose","go","gal","t","elianto",1,0,NA,0,0,"-10",1
"431",1143,2,3,"NA",238,7,80,"lose","go","gal","t","elianto",1,1,1820,1,0,"0",1
"432",1143,2,3,"NA",242,8,80,"lose","go","gal","t","elianto",1,1,1134,1,0,"0",1
"433",1143,2,3,"NA",245,9,80,"lose","go","gal","t","elianto",1,0,NA,0,1,"0",0
"434",1143,2,3,"NA",251,10,80,"lose","go","gal","t","elianto",1,0,NA,0,0,"-10",1
"435",1143,2,3,"NA",256,11,80,"lose","go","gal","t","elianto",1,0,NA,0,0,"-10",0
"436",1143,2,3,"NA",259,12,80,"lose","go","gal","t","elianto",1,0,NA,0,0,"-10",0
"437",1143,2,2,"NA",24,1,200,"lose","go","gal","u","elianto",1,0,NA,0,0,"-10",0
"438",1143,2,2,"NA",28,2,200,"lose","go","gal","u","elianto",1,1,553,1,0,"0",1
"439",1143,2,2,"NA",32,3,200,"lose","go","gal","u","elianto",1,0,NA,0,0,"-10",1
"440",1143,2,2,"NA",33,4,200,"lose","go","gal","u","elianto",1,1,1120,1,1,"-10",1
"441",1143,2,2,"NA",38,5,200,"lose","go","gal","u","elianto",1,1,886,1,1,"-10",1
"442",1143,2,2,"NA",43,6,200,"lose","go","gal","u","elianto",1,1,1058,1,0,"0",1
"443",1143,2,2,"NA",45,7,200,"lose","go","gal","u","elianto",1,1,814,1,0,"0",1
"444",1143,2,2,"NA",49,8,200,"lose","go","gal","u","elianto",1,1,1194,1,0,"0",1
"445",1143,2,2,"NA",55,9,200,"lose","go","gal","u","elianto",1,0,NA,0,0,"-10",0
"446",1143,2,2,"NA",86,1,110,"lose","go","gal","w","elianto",1,1,1383,1,0,"0",1
"447",1143,2,2,"NA",92,2,110,"lose","go","gal","w","elianto",1,1,1461,1,1,"-10",1
"448",1143,2,2,"NA",95,3,110,"lose","go","gal","w","elianto",1,1,1473,1,1,"-10",1
"449",1143,2,2,"NA",99,4,110,"lose","go","gal","w","elianto",1,0,NA,0,0,"-10",0
"450",1143,2,2,"NA",108,5,110,"lose","go","gal","w","elianto",1,1,1653,1,0,"0",1
"451",1143,2,2,"NA",109,6,110,"lose","go","gal","w","elianto",1,1,911,1,1,"-10",1
"452",1143,2,2,"NA",113,7,110,"lose","go","gal","w","elianto",1,1,573,1,1,"-10",1
"453",1143,2,2,"NA",118,8,110,"lose","go","gal","w","elianto",1,1,615,1,0,"0",1
"454",1143,2,2,"NA",122,9,110,"lose","go","gal","w","elianto",1,0,NA,0,0,"-10",0
"455",1143,2,2,"NA",128,10,110,"lose","go","gal","w","elianto",1,1,1241,1,1,"-10",1
"456",1143,2,2,"NA",129,11,110,"lose","go","gal","w","elianto",1,0,NA,0,0,"-10",0
"457",1143,2,2,"NA",136,12,110,"lose","go","gal","w","elianto",1,1,1780,1,0,"0",1
"458",1143,2,2,"NA",138,13,110,"lose","go","gal","w","elianto",1,1,1685,1,1,"-10",1
"459",1143,2,3,"NA",141,1,10,"lose","no-go","ngal","y","elianto",0,0,NA,1,1,"-10",1
"460",1143,2,3,"NA",145,2,10,"lose","no-go","ngal","y","elianto",0,1,1053,0,0,"-10",1
"461",1143,2,3,"NA",152,3,10,"lose","no-go","ngal","y","elianto",0,1,1099,0,0,"-10",1
"462",1143,2,3,"NA",155,4,10,"lose","no-go","ngal","y","elianto",0,1,1300,0,0,"-10",1
"463",1143,2,3,"NA",158,5,10,"lose","no-go","ngal","y","elianto",0,0,NA,1,0,"0",0
"464",1143,2,3,"NA",162,6,10,"lose","no-go","ngal","y","elianto",0,1,956,0,0,"-10",1
"465",1143,2,3,"NA",166,7,10,"lose","no-go","ngal","y","elianto",0,1,1196,0,0,"-10",1
"466",1143,2,3,"NA",176,8,10,"lose","no-go","ngal","y","elianto",0,0,NA,1,0,"0",0
"467",1143,2,3,"NA",184,9,10,"lose","no-go","ngal","y","elianto",0,1,735,0,0,"-10",1
"468",1143,2,3,"NA",188,10,10,"lose","no-go","ngal","y","elianto",0,1,937,0,0,"-10",1
"469",1143,2,3,"NA",165,1,50,"win","no-go","ngw","z","elianto",0,1,1175,0,0,"0",1
"470",1143,2,3,"NA",169,2,50,"win","no-go","ngw","z","elianto",0,1,890,0,1,"+10",1
"471",1143,2,3,"NA",173,3,50,"win","no-go","ngw","z","elianto",0,1,562,0,0,"0",1
"472",1143,2,3,"NA",180,4,50,"win","no-go","ngw","z","elianto",0,1,808,0,1,"+10",1
"473",1143,2,3,"NA",181,5,50,"win","no-go","ngw","z","elianto",0,1,1472,0,0,"0",1
"474",1143,2,3,"NA",186,6,50,"win","no-go","ngw","z","elianto",0,1,585,0,0,"0",1
"475",1143,2,3,"NA",191,7,50,"win","no-go","ngw","z","elianto",0,0,NA,1,0,"+10",1
"476",1143,2,3,"NA",196,8,50,"win","no-go","ngw","z","elianto",0,1,517,0,0,"0",1
"477",1143,2,3,"NA",198,9,50,"win","no-go","ngw","z","elianto",0,1,842,0,0,"0",1
"478",1143,2,3,"NA",204,10,50,"win","no-go","ngw","z","elianto",0,1,1803,0,0,"0",1
"479",1143,2,3,"NA",207,11,50,"win","no-go","ngw","z","elianto",0,1,1052,0,1,"+10",1
"480",1143,2,3,"NA",211,12,50,"win","no-go","ngw","z","elianto",0,0,NA,1,0,"+10",0
"481",1206,2,3,"NA",144,1,170,"lose","no-go","ngal","a","elianto",0,0,NA,1,1,"-10",0
"482",1206,2,3,"NA",147,2,170,"lose","no-go","ngal","a","elianto",0,0,NA,1,0,"0",0
"483",1206,2,3,"NA",152,3,170,"lose","no-go","ngal","a","elianto",0,0,NA,1,0,"0",0
"484",1206,2,3,"NA",156,4,170,"lose","no-go","ngal","a","elianto",0,0,NA,1,0,"0",0
"485",1206,2,3,"NA",160,5,170,"lose","no-go","ngal","a","elianto",0,0,NA,1,0,"0",0
"486",1206,2,3,"NA",161,6,170,"lose","no-go","ngal","a","elianto",0,0,NA,1,0,"0",0
"487",1206,2,3,"NA",167,7,170,"lose","no-go","ngal","a","elianto",0,0,NA,1,0,"0",0
"488",1206,2,3,"NA",176,8,170,"lose","no-go","ngal","a","elianto",0,0,NA,1,0,"0",0
"489",1206,2,3,"NA",181,9,170,"lose","no-go","ngal","a","elianto",0,0,NA,1,0,"0",0
"490",1206,2,3,"NA",188,10,170,"lose","no-go","ngal","a","elianto",0,0,NA,1,0,"0",0
"491",1206,2,2,"NA",23,1,70,"lose","no-go","ngal","b","elianto",0,0,NA,1,0,"0",1
"492",1206,2,2,"NA",28,2,70,"lose","no-go","ngal","b","elianto",0,0,NA,1,0,"0",0
"493",1206,2,2,"NA",30,3,70,"lose","no-go","ngal","b","elianto",0,0,NA,1,0,"0",0
"494",1206,2,2,"NA",33,4,70,"lose","no-go","ngal","b","elianto",0,0,NA,1,0,"0",0
"495",1206,2,2,"NA",37,5,70,"lose","no-go","ngal","b","elianto",0,0,NA,1,1,"-10",0
"496",1206,2,2,"NA",41,6,70,"lose","no-go","ngal","b","elianto",0,0,NA,1,0,"0",0
"497",1206,2,2,"NA",47,7,70,"lose","no-go","ngal","b","elianto",0,0,NA,1,0,"0",0
"498",1206,2,2,"NA",51,8,70,"lose","no-go","ngal","b","elianto",0,0,NA,1,0,"0",0
"499",1206,2,2,"NA",53,9,70,"lose","no-go","ngal","b","elianto",0,0,NA,1,0,"0",0
"500",1206,2,2,"NA",60,10,70,"lose","no-go","ngal","b","elianto",0,0,NA,1,0,"0",0
"501",1206,2,2,"NA",61,11,70,"lose","no-go","ngal","b","elianto",0,0,NA,1,0,"0",0
"502",1206,2,2,"NA",68,12,70,"lose","no-go","ngal","b","elianto",0,0,NA,1,0,"0",0
"503",1206,2,2,"NA",76,13,70,"lose","no-go","ngal","b","elianto",0,0,NA,1,0,"0",0
"504",1206,2,2,"NA",80,14,70,"lose","no-go","ngal","b","elianto",0,0,NA,1,0,"0",0
"505",1206,2,2,"NA",84,15,70,"lose","no-go","ngal","b","elianto",0,0,NA,1,0,"0",0
"506",1206,2,2,"NA",58,1,60,"win","go","gw","c","elianto",1,1,888.399999976158,1,0,"+10",1
"507",1206,2,2,"NA",63,2,60,"win","go","gw","c","elianto",1,1,1054.10000002384,1,0,"+10",1
"508",1206,2,2,"NA",66,3,60,"win","go","gw","c","elianto",1,1,963.200000047684,1,0,"+10",1
"509",1206,2,2,"NA",71,4,60,"win","go","gw","c","elianto",1,1,537.800000071526,1,0,"+10",1
"510",1206,2,2,"NA",74,5,60,"win","go","gw","c","elianto",1,1,1040.70000004768,1,0,"+10",2
"511",1206,2,2,"NA",78,6,60,"win","go","gw","c","elianto",1,1,956.899999976158,1,0,"+10",1
"512",1206,2,2,"NA",79,7,60,"win","go","gw","c","elianto",1,1,608.800000071526,1,0,"+10",1
"513",1206,2,2,"NA",81,8,60,"win","go","gw","c","elianto",1,1,1027.29999995232,1,0,"+10",1
"514",1206,2,2,"NA",85,9,60,"win","go","gw","c","elianto",1,1,730.100000023842,1,0,"+10",1
"515",1206,2,2,"NA",92,10,60,"win","go","gw","c","elianto",1,1,716.100000023842,1,0,"+10",1
"516",1206,2,2,"NA",108,11,60,"win","go","gw","c","elianto",1,1,691.100000023842,1,0,"+10",1
"517",1206,2,3,"NA",214,1,120,"win","no-go","ngw","d","elianto",0,1,1152.60000002384,0,0,"0",1
"518",1206,2,3,"NA",218,2,120,"win","no-go","ngw","d","elianto",0,1,610.599999904633,0,0,"0",1
"519",1206,2,3,"NA",223,3,120,"win","no-go","ngw","d","elianto",0,0,NA,1,0,"+10",1
"520",1206,2,3,"NA",228,4,120,"win","no-go","ngw","d","elianto",0,1,752.100000023842,0,0,"0",1
"521",1206,2,3,"NA",230,5,120,"win","no-go","ngw","d","elianto",0,1,985.200000047684,0,0,"0",1
"522",1206,2,3,"NA",233,6,120,"win","no-go","ngw","d","elianto",0,1,713.100000023842,0,0,"0",1
"523",1206,2,3,"NA",240,7,120,"win","no-go","ngw","d","elianto",0,1,1167.60000002384,0,0,"0",1
"524",1206,2,3,"NA",241,8,120,"win","no-go","ngw","d","elianto",0,1,1100.30000007153,0,0,"0",1
"525",1206,2,3,"NA",245,9,120,"win","no-go","ngw","d","elianto",0,1,817.800000071526,0,1,"+10",1
"526",1206,2,3,"NA",251,10,120,"win","no-go","ngw","d","elianto",0,1,693.700000047684,0,0,"0",1
"527",1206,2,3,"NA",256,11,120,"win","no-go","ngw","d","elianto",0,1,582.5,0,0,"0",2
"528",1206,2,3,"NA",259,12,120,"win","no-go","ngw","d","elianto",0,1,759.100000023842,0,0,"0",1
"529",1206,2,3,"NA",201,1,140,"lose","go","gal","e","elianto",1,0,NA,0,0,"-10",0
"530",1206,2,3,"NA",207,2,140,"lose","go","gal","e","elianto",1,0,NA,0,0,"-10",0
"531",1206,2,3,"NA",212,3,140,"lose","go","gal","e","elianto",1,0,NA,0,1,"0",0
"532",1206,2,3,"NA",213,4,140,"lose","go","gal","e","elianto",1,0,NA,0,0,"-10",0
"533",1206,2,3,"NA",217,5,140,"lose","go","gal","e","elianto",1,0,NA,0,0,"-10",0
"534",1206,2,3,"NA",235,6,140,"lose","go","gal","e","elianto",1,0,NA,0,0,"-10",0
"535",1206,2,3,"NA",238,7,140,"lose","go","gal","e","elianto",1,0,NA,0,0,"-10",0
"536",1206,2,3,"NA",242,8,140,"lose","go","gal","e","elianto",1,0,NA,0,1,"0",0
"537",1206,2,3,"NA",246,9,140,"lose","go","gal","e","elianto",1,0,NA,0,0,"-10",0
"538",1206,2,3,"NA",250,10,140,"lose","go","gal","e","elianto",1,0,NA,0,0,"-10",0
"539",1206,2,3,"NA",255,11,140,"lose","go","gal","e","elianto",1,0,NA,0,0,"-10",0
"540",1206,2,3,"NA",257,12,140,"lose","go","gal","e","elianto",1,0,NA,0,1,"0",0
"541",1206,2,2,"NA",24,1,90,"win","no-go","ngw","f","elianto",0,1,632.5,0,0,"0",2
"542",1206,2,2,"NA",25,2,90,"win","no-go","ngw","f","elianto",0,1,1642.10000002384,0,1,"+10",1
"543",1206,2,2,"NA",32,3,90,"win","no-go","ngw","f","elianto",0,0,NA,1,0,"+10",1
"544",1206,2,2,"NA",34,4,90,"win","no-go","ngw","f","elianto",0,1,818.899999976158,0,0,"0",2
"545",1206,2,2,"NA",39,5,90,"win","no-go","ngw","f","elianto",0,1,919.899999976158,0,0,"0",1
"546",1206,2,2,"NA",43,6,90,"win","no-go","ngw","f","elianto",0,1,807.300000071526,0,0,"0",1
"547",1206,2,2,"NA",46,7,90,"win","no-go","ngw","f","elianto",0,1,941.600000023842,0,0,"0",1
"548",1206,2,2,"NA",52,8,90,"win","no-go","ngw","f","elianto",0,1,658.899999976158,0,0,"0",1
"549",1206,2,2,"NA",55,9,90,"win","no-go","ngw","f","elianto",0,1,849,0,0,"0",1
"550",1206,2,2,"NA",57,10,90,"win","no-go","ngw","f","elianto",0,1,634.899999976158,0,0,"0",1
"551",1206,2,2,"NA",64,11,90,"win","no-go","ngw","f","elianto",0,1,1133.20000004768,0,1,"+10",1
"552",1206,2,2,"NA",67,12,90,"win","no-go","ngw","f","elianto",0,1,682.799999952316,0,0,"0",1
"553",1206,2,2,"NA",69,13,90,"win","no-go","ngw","f","elianto",0,1,848.5,0,1,"+10",1
"554",1206,2,2,"NA",73,14,90,"win","no-go","ngw","f","elianto",0,0,NA,1,0,"+10",0
"555",1206,2,3,"NA",142,1,180,"lose","go","gal","g","elianto",1,0,NA,0,1,"0",0
"556",1206,2,3,"NA",145,2,180,"lose","go","gal","g","elianto",1,0,NA,0,0,"-10",0
"557",1206,2,3,"NA",150,3,180,"lose","go","gal","g","elianto",1,0,NA,0,0,"-10",0
"558",1206,2,3,"NA",153,4,180,"lose","go","gal","g","elianto",1,0,NA,0,0,"-10",0
"559",1206,2,3,"NA",158,5,180,"lose","go","gal","g","elianto",1,0,NA,0,0,"-10",0
"560",1206,2,3,"NA",164,6,180,"lose","go","gal","g","elianto",1,0,NA,0,0,"-10",0
"561",1206,2,3,"NA",165,7,180,"lose","go","gal","g","elianto",1,0,NA,0,1,"0",0
"562",1206,2,3,"NA",170,8,180,"lose","go","gal","g","elianto",1,0,NA,0,0,"-10",0
"563",1206,2,3,"NA",178,9,180,"lose","go","gal","g","elianto",1,0,NA,0,0,"-10",0
"564",1206,2,3,"NA",184,10,180,"lose","go","gal","g","elianto",1,0,NA,0,0,"-10",0
"565",1206,2,3,"NA",187,11,180,"lose","go","gal","g","elianto",1,0,NA,0,0,"-10",0
"566",1206,2,3,"NA",191,12,180,"lose","go","gal","g","elianto",1,0,NA,0,0,"-10",0
"567",1206,2,3,"NA",195,13,180,"lose","go","gal","g","elianto",1,0,NA,0,0,"-10",0
"568",1206,2,3,"NA",197,14,180,"lose","go","gal","g","elianto",1,0,NA,0,0,"-10",0
"569",1206,2,2,"NA",87,1,20,"lose","go","gal","h","elianto",1,0,NA,0,0,"-10",0
"570",1206,2,2,"NA",89,2,20,"lose","go","gal","h","elianto",1,0,NA,0,0,"-10",0
"571",1206,2,2,"NA",93,3,20,"lose","go","gal","h","elianto",1,0,NA,0,0,"-10",0
"572",1206,2,2,"NA",99,4,20,"lose","go","gal","h","elianto",1,0,NA,0,1,"0",0
"573",1206,2,2,"NA",106,5,20,"lose","go","gal","h","elianto",1,0,NA,0,1,"0",0
"574",1206,2,2,"NA",109,6,20,"lose","go","gal","h","elianto",1,0,NA,0,0,"-10",0
"575",1206,2,2,"NA",114,7,20,"lose","go","gal","h","elianto",1,0,NA,0,0,"-10",0
"576",1206,2,2,"NA",117,8,20,"lose","go","gal","h","elianto",1,0,NA,0,0,"-10",0
"577",1206,2,2,"NA",124,9,20,"lose","go","gal","h","elianto",1,0,NA,0,0,"-10",0
"578",1206,2,2,"NA",127,10,20,"lose","go","gal","h","elianto",1,0,NA,0,0,"-10",0
"579",1206,2,2,"NA",129,11,20,"lose","go","gal","h","elianto",1,0,NA,0,0,"-10",0
"580",1206,2,2,"NA",135,12,20,"lose","go","gal","h","elianto",1,0,NA,0,1,"0",0
"581",1206,2,2,"NA",137,13,20,"lose","go","gal","h","elianto",1,0,NA,0,0,"-10",0
"582",1206,2,3,"NA",222,1,130,"win","no-go","ngw","j","elianto",0,1,781.299999952316,0,0,"0",1
"583",1206,2,3,"NA",227,2,130,"win","no-go","ngw","j","elianto",0,1,793.199999928474,0,0,"0",1
"584",1206,2,3,"NA",231,3,130,"win","no-go","ngw","j","elianto",0,1,683.700000047684,0,0,"0",1
"585",1206,2,3,"NA",236,4,130,"win","no-go","ngw","j","elianto",0,1,552.699999928474,0,0,"0",1
"586",1206,2,3,"NA",244,5,130,"win","no-go","ngw","j","elianto",0,1,1010.59999990463,0,0,"0",1
"587",1206,2,3,"NA",248,6,130,"win","no-go","ngw","j","elianto",0,1,727.400000095367,0,0,"0",1
"588",1206,2,3,"NA",252,7,130,"win","no-go","ngw","j","elianto",0,1,652.699999928474,0,0,"0",1
"589",1206,2,3,"NA",253,8,130,"win","no-go","ngw","j","elianto",0,1,709.899999976158,0,0,"0",1
"590",1206,2,3,"NA",260,9,130,"win","no-go","ngw","j","elianto",0,1,941.799999952316,0,0,"0",1
"591",1206,2,3,"NA",141,1,190,"win","go","gw","l","elianto",1,1,1005.89999997616,1,0,"+10",1
"592",1206,2,3,"NA",148,2,190,"win","go","gw","l","elianto",1,1,734.5,1,0,"+10",1
"593",1206,2,3,"NA",151,3,190,"win","go","gw","l","elianto",1,1,514.200000047684,1,0,"+10",1
"594",1206,2,3,"NA",155,4,190,"win","go","gw","l","elianto",1,1,727.299999952316,1,0,"+10",1
"595",1206,2,3,"NA",157,5,190,"win","go","gw","l","elianto",1,1,652.299999952316,1,1,"0",1
"596",1206,2,3,"NA",163,6,190,"win","go","gw","l","elianto",1,1,603.299999952316,1,0,"+10",1
"597",1206,2,3,"NA",171,7,190,"win","go","gw","l","elianto",1,1,620.600000023842,1,0,"+10",1
"598",1206,2,3,"NA",174,8,190,"win","go","gw","l","elianto",1,1,1012.29999995232,1,0,"+10",1
"599",1206,2,3,"NA",177,9,190,"win","go","gw","l","elianto",1,1,595.700000047684,1,0,"+10",1
"600",1206,2,3,"NA",182,10,190,"win","go","gw","l","elianto",1,1,743.600000023842,1,0,"+10",1
"601",1206,2,3,"NA",186,11,190,"win","go","gw","l","elianto",1,1,536.799999952316,1,0,"+10",1
"602",1206,2,3,"NA",190,12,190,"win","go","gw","l","elianto",1,1,695.5,1,0,"+10",1
"603",1206,2,3,"NA",194,13,190,"win","go","gw","l","elianto",1,1,710.399999976158,1,0,"+10",1
"604",1206,2,2,"NA",101,1,40,"win","go","gw","m","elianto",1,1,861.5,1,0,"+10",1
"605",1206,2,2,"NA",105,2,40,"win","go","gw","m","elianto",1,1,1164.10000002384,1,0,"+10",1
"606",1206,2,2,"NA",111,3,40,"win","go","gw","m","elianto",1,1,722.899999976158,1,0,"+10",1
"607",1206,2,2,"NA",116,4,40,"win","go","gw","m","elianto",1,0,NA,0,0,"0",1
"608",1206,2,2,"NA",118,5,40,"win","go","gw","m","elianto",1,1,664.199999928474,1,0,"+10",1
"609",1206,2,2,"NA",122,6,40,"win","go","gw","m","elianto",1,0,NA,0,0,"0",1
"610",1206,2,2,"NA",128,7,40,"win","go","gw","m","elianto",1,1,1104.20000004768,1,0,"+10",1
"611",1206,2,2,"NA",130,8,40,"win","go","gw","m","elianto",1,1,786.899999976158,1,0,"+10",1
"612",1206,2,2,"NA",133,9,40,"win","go","gw","m","elianto",1,1,1833.70000004768,1,0,"+10",1
"613",1206,2,2,"NA",139,10,40,"win","go","gw","m","elianto",1,1,498.700000047684,1,0,"+10",1
"614",1206,2,2,"NA",22,1,100,"lose","go","gal","n","elianto",1,0,NA,0,0,"-10",0
"615",1206,2,2,"NA",26,2,100,"lose","go","gal","n","elianto",1,0,NA,0,1,"0",0
"616",1206,2,2,"NA",31,3,100,"lose","go","gal","n","elianto",1,0,NA,0,0,"-10",0
"617",1206,2,2,"NA",36,4,100,"lose","go","gal","n","elianto",1,0,NA,0,1,"0",0
"618",1206,2,2,"NA",38,5,100,"lose","go","gal","n","elianto",1,0,NA,0,0,"-10",0
"619",1206,2,2,"NA",44,6,100,"lose","go","gal","n","elianto",1,0,NA,0,0,"-10",0
"620",1206,2,2,"NA",48,7,100,"lose","go","gal","n","elianto",1,0,NA,0,0,"-10",1
"621",1206,2,2,"NA",50,8,100,"lose","go","gal","n","elianto",1,0,NA,0,1,"0",0
"622",1206,2,2,"NA",54,9,100,"lose","go","gal","n","elianto",1,0,NA,0,0,"-10",0
"623",1206,2,3,"NA",168,1,160,"win","no-go","ngw","p","elianto",0,1,694.399999976158,0,0,"0",1
"624",1206,2,3,"NA",172,2,160,"win","no-go","ngw","p","elianto",0,1,1031.60000002384,0,0,"0",1
"625",1206,2,3,"NA",173,3,160,"win","no-go","ngw","p","elianto",0,1,840.299999952316,0,0,"0",1
"626",1206,2,3,"NA",180,4,160,"win","no-go","ngw","p","elianto",0,1,1183,0,1,"+10",1
"627",1206,2,3,"NA",183,5,160,"win","no-go","ngw","p","elianto",0,1,1004,0,0,"0",3
"628",1206,2,3,"NA",185,6,160,"win","no-go","ngw","p","elianto",0,1,563.900000095367,0,0,"0",1
"629",1206,2,3,"NA",192,7,160,"win","no-go","ngw","p","elianto",0,1,594,0,0,"0",1
"630",1206,2,3,"NA",196,8,160,"win","no-go","ngw","p","elianto",0,1,702.199999928474,0,0,"0",1
"631",1206,2,3,"NA",198,9,160,"win","no-go","ngw","p","elianto",0,1,818.700000047684,0,0,"0",1
"632",1206,2,3,"NA",202,10,160,"win","no-go","ngw","p","elianto",0,1,545.899999976158,0,0,"0",1
"633",1206,2,3,"NA",206,11,160,"win","no-go","ngw","p","elianto",0,1,710.600000023842,0,0,"0",1
"634",1206,2,3,"NA",209,12,160,"win","no-go","ngw","p","elianto",0,1,560.299999952316,0,0,"0",1
"635",1206,2,2,"NA",94,1,30,"win","go","gw","r","elianto",1,1,1195.10000002384,1,0,"+10",1
"636",1206,2,2,"NA",100,2,30,"win","go","gw","r","elianto",1,1,847.299999952316,1,0,"+10",1
"637",1206,2,2,"NA",104,3,30,"win","go","gw","r","elianto",1,1,1033.10000002384,1,0,"+10",1
"638",1206,2,2,"NA",107,4,30,"win","go","gw","r","elianto",1,1,663.600000023842,1,0,"+10",1
"639",1206,2,2,"NA",112,5,30,"win","go","gw","r","elianto",1,1,807.599999904633,1,0,"+10",1
"640",1206,2,2,"NA",113,6,30,"win","go","gw","r","elianto",1,1,862.100000023842,1,0,"+10",1
"641",1206,2,2,"NA",119,7,30,"win","go","gw","r","elianto",1,1,629.699999928474,1,0,"+10",1
"642",1206,2,2,"NA",121,8,30,"win","go","gw","r","elianto",1,1,759.799999952316,1,0,"+10",1
"643",1206,2,2,"NA",126,9,30,"win","go","gw","r","elianto",1,1,1213.70000004768,1,1,"0",1
"644",1206,2,2,"NA",131,10,30,"win","go","gw","r","elianto",1,1,1480.20000004768,1,0,"+10",1
"645",1206,2,2,"NA",136,11,30,"win","go","gw","r","elianto",1,1,530.099999904633,1,0,"+10",1
"646",1206,2,2,"NA",140,12,30,"win","go","gw","r","elianto",1,1,677.100000023842,1,0,"+10",1
"647",1206,2,3,"NA",189,1,150,"win","go","gw","s","elianto",1,1,608.799999952316,1,1,"0",1
"648",1206,2,3,"NA",193,2,150,"win","go","gw","s","elianto",1,1,1001.09999990463,1,0,"+10",1
"649",1206,2,3,"NA",200,3,150,"win","go","gw","s","elianto",1,1,637.5,1,0,"+10",1
"650",1206,2,3,"NA",203,4,150,"win","go","gw","s","elianto",1,0,NA,0,1,"+10",1
"651",1206,2,3,"NA",208,5,150,"win","go","gw","s","elianto",1,1,628,1,0,"+10",1
"652",1206,2,3,"NA",211,6,150,"win","go","gw","s","elianto",1,1,714.5,1,1,"0",1
"653",1206,2,3,"NA",215,7,150,"win","go","gw","s","elianto",1,1,1028.79999995232,1,0,"+10",1
"654",1206,2,3,"NA",220,8,150,"win","go","gw","s","elianto",1,0,NA,0,0,"0",0
"655",1206,2,3,"NA",224,9,150,"win","go","gw","s","elianto",1,1,702.799999952316,1,0,"+10",1
"656",1206,2,3,"NA",226,10,150,"win","go","gw","s","elianto",1,1,646.100000023842,1,0,"+10",1
"657",1206,2,3,"NA",229,11,150,"win","go","gw","s","elianto",1,1,737.399999976158,1,0,"+10",1
"658",1206,2,3,"NA",234,12,150,"win","go","gw","s","elianto",1,1,524.899999976158,1,0,"+10",1
"659",1206,2,3,"NA",239,13,150,"win","go","gw","s","elianto",1,1,633.5,1,0,"+10",1
"660",1206,2,3,"NA",243,14,150,"win","go","gw","s","elianto",1,1,673,1,0,"+10",1
"661",1206,2,2,"NA",21,1,80,"lose","go","gal","t","elianto",1,0,NA,0,0,"-10",1
"662",1206,2,2,"NA",27,2,80,"lose","go","gal","t","elianto",1,0,NA,0,1,"0",0
"663",1206,2,2,"NA",29,3,80,"lose","go","gal","t","elianto",1,0,NA,0,0,"-10",0
"664",1206,2,2,"NA",35,4,80,"lose","go","gal","t","elianto",1,0,NA,0,1,"0",0
"665",1206,2,2,"NA",40,5,80,"lose","go","gal","t","elianto",1,0,NA,0,1,"0",0
"666",1206,2,2,"NA",42,6,80,"lose","go","gal","t","elianto",1,0,NA,0,0,"-10",1
"667",1206,2,2,"NA",45,7,80,"lose","go","gal","t","elianto",1,0,NA,0,0,"-10",0
"668",1206,2,2,"NA",49,8,80,"lose","go","gal","t","elianto",1,0,NA,0,0,"-10",0
"669",1206,2,2,"NA",56,9,80,"lose","go","gal","t","elianto",1,0,NA,0,0,"-10",0
"670",1206,2,2,"NA",59,10,80,"lose","go","gal","t","elianto",1,0,NA,0,0,"-10",0
"671",1206,2,2,"NA",62,11,80,"lose","go","gal","t","elianto",1,1,357,1,0,"0",1
"672",1206,2,2,"NA",70,12,80,"lose","go","gal","t","elianto",1,0,NA,0,0,"-10",0
"673",1206,2,3,"NA",143,1,200,"lose","no-go","ngal","u","elianto",0,0,NA,1,0,"0",0
"674",1206,2,3,"NA",146,2,200,"lose","no-go","ngal","u","elianto",0,0,NA,1,0,"0",0
"675",1206,2,3,"NA",149,3,200,"lose","no-go","ngal","u","elianto",0,0,NA,1,0,"0",0
"676",1206,2,3,"NA",154,4,200,"lose","no-go","ngal","u","elianto",0,0,NA,1,0,"0",0
"677",1206,2,3,"NA",159,5,200,"lose","no-go","ngal","u","elianto",0,0,NA,1,0,"0",0
"678",1206,2,3,"NA",162,6,200,"lose","no-go","ngal","u","elianto",0,0,NA,1,0,"0",0
"679",1206,2,3,"NA",166,7,200,"lose","no-go","ngal","u","elianto",0,0,NA,1,0,"0",0
"680",1206,2,3,"NA",169,8,200,"lose","no-go","ngal","u","elianto",0,0,NA,1,0,"0",0
"681",1206,2,3,"NA",175,9,200,"lose","no-go","ngal","u","elianto",0,0,NA,1,0,"0",0
"682",1206,2,3,"NA",179,10,200,"lose","no-go","ngal","u","elianto",0,0,NA,1,0,"0",0
"683",1206,2,3,"NA",199,1,110,"lose","no-go","ngal","w","elianto",0,0,NA,1,0,"0",0
"684",1206,2,3,"NA",204,2,110,"lose","no-go","ngal","w","elianto",0,0,NA,1,0,"0",0
"685",1206,2,3,"NA",205,3,110,"lose","no-go","ngal","w","elianto",0,0,NA,1,0,"0",0
"686",1206,2,3,"NA",210,4,110,"lose","no-go","ngal","w","elianto",0,0,NA,1,0,"0",0
"687",1206,2,3,"NA",216,5,110,"lose","no-go","ngal","w","elianto",0,0,NA,1,0,"0",0
"688",1206,2,3,"NA",219,6,110,"lose","no-go","ngal","w","elianto",0,0,NA,1,0,"0",0
"689",1206,2,3,"NA",221,7,110,"lose","no-go","ngal","w","elianto",0,0,NA,1,0,"0",0
"690",1206,2,3,"NA",225,8,110,"lose","no-go","ngal","w","elianto",0,0,NA,1,0,"0",0
"691",1206,2,3,"NA",232,9,110,"lose","no-go","ngal","w","elianto",0,0,NA,1,0,"0",0
"692",1206,2,3,"NA",237,10,110,"lose","no-go","ngal","w","elianto",0,0,NA,1,0,"0",0
"693",1206,2,3,"NA",247,11,110,"lose","no-go","ngal","w","elianto",0,0,NA,1,0,"0",0
"694",1206,2,3,"NA",249,12,110,"lose","no-go","ngal","w","elianto",0,0,NA,1,1,"-10",0
"695",1206,2,3,"NA",254,13,110,"lose","no-go","ngal","w","elianto",0,0,NA,1,0,"0",0
"696",1206,2,3,"NA",258,14,110,"lose","no-go","ngal","w","elianto",0,0,NA,1,1,"-10",0
"697",1206,2,2,"NA",83,1,10,"lose","no-go","ngal","y","elianto",0,0,NA,1,0,"0",0
"698",1206,2,2,"NA",86,2,10,"lose","no-go","ngal","y","elianto",0,0,NA,1,0,"0",0
"699",1206,2,2,"NA",90,3,10,"lose","no-go","ngal","y","elianto",0,0,NA,1,1,"-10",0
"700",1206,2,2,"NA",96,4,10,"lose","no-go","ngal","y","elianto",0,0,NA,1,0,"0",0
"701",1206,2,2,"NA",98,5,10,"lose","no-go","ngal","y","elianto",0,0,NA,1,0,"0",0
"702",1206,2,2,"NA",102,6,10,"lose","no-go","ngal","y","elianto",0,0,NA,1,0,"0",0
"703",1206,2,2,"NA",123,7,10,"lose","no-go","ngal","y","elianto",0,0,NA,1,1,"-10",0
"704",1206,2,2,"NA",125,8,10,"lose","no-go","ngal","y","elianto",0,0,NA,1,0,"0",0
"705",1206,2,2,"NA",132,9,10,"lose","no-go","ngal","y","elianto",0,0,NA,1,0,"0",0
"706",1206,2,2,"NA",134,10,10,"lose","no-go","ngal","y","elianto",0,0,NA,1,0,"0",0
"707",1206,2,2,"NA",138,11,10,"lose","no-go","ngal","y","elianto",0,0,NA,1,0,"0",0
"708",1206,2,2,"NA",65,1,50,"win","no-go","ngw","z","elianto",0,1,808.399999976158,0,0,"0",1
"709",1206,2,2,"NA",72,2,50,"win","no-go","ngw","z","elianto",0,1,837.5,0,0,"0",1
"710",1206,2,2,"NA",75,3,50,"win","no-go","ngw","z","elianto",0,1,990,0,1,"+10",1
"711",1206,2,2,"NA",77,4,50,"win","no-go","ngw","z","elianto",0,1,755.100000023842,0,0,"0",1
"712",1206,2,2,"NA",82,5,50,"win","no-go","ngw","z","elianto",0,1,632.299999952316,0,0,"0",1
"713",1206,2,2,"NA",88,6,50,"win","no-go","ngw","z","elianto",0,1,1114.09999990463,0,0,"0",1
"714",1206,2,2,"NA",91,7,50,"win","no-go","ngw","z","elianto",0,0,NA,1,0,"+10",0
"715",1206,2,2,"NA",95,8,50,"win","no-go","ngw","z","elianto",0,1,798.5,0,1,"+10",1
"716",1206,2,2,"NA",97,9,50,"win","no-go","ngw","z","elianto",0,1,1990.10000002384,0,0,"0",1
"717",1206,2,2,"NA",103,10,50,"win","no-go","ngw","z","elianto",0,1,757.299999952316,0,0,"0",1
"718",1206,2,2,"NA",110,11,50,"win","no-go","ngw","z","elianto",0,1,882.5,0,1,"+10",1
"719",1206,2,2,"NA",115,12,50,"win","no-go","ngw","z","elianto",0,1,570.700000047684,0,0,"0",1
"720",1206,2,2,"NA",120,13,50,"win","no-go","ngw","z","elianto",0,1,590.100000023842,0,0,"0",1
"721",1230,2,2,"NA",84,1,170,"lose","go","gal","a","elianto",1,0,NA,0,0,"-10",1
"722",1230,2,2,"NA",88,2,170,"lose","go","gal","a","elianto",1,0,NA,0,0,"-10",0
"723",1230,2,2,"NA",90,3,170,"lose","go","gal","a","elianto",1,0,NA,0,0,"-10",0
"724",1230,2,2,"NA",95,4,170,"lose","go","gal","a","elianto",1,0,NA,0,0,"-10",0
"725",1230,2,2,"NA",97,5,170,"lose","go","gal","a","elianto",1,0,NA,0,1,"0",0
"726",1230,2,2,"NA",116,6,170,"lose","go","gal","a","elianto",1,0,NA,0,0,"-10",0
"727",1230,2,2,"NA",117,7,170,"lose","go","gal","a","elianto",1,0,NA,0,0,"-10",0
"728",1230,2,2,"NA",124,8,170,"lose","go","gal","a","elianto",1,0,NA,0,1,"0",0
"729",1230,2,2,"NA",127,9,170,"lose","go","gal","a","elianto",1,0,NA,0,0,"-10",0
"730",1230,2,2,"NA",132,10,170,"lose","go","gal","a","elianto",1,0,NA,0,0,"-10",0
"731",1230,2,2,"NA",135,11,170,"lose","go","gal","a","elianto",1,0,NA,0,0,"-10",0
"732",1230,2,2,"NA",139,12,170,"lose","go","gal","a","elianto",1,0,NA,0,1,"0",0
"733",1230,2,3,"NA",206,1,70,"lose","go","gal","b","elianto",1,0,NA,0,0,"-10",0
"734",1230,2,3,"NA",211,2,70,"lose","go","gal","b","elianto",1,0,NA,0,0,"-10",0
"735",1230,2,3,"NA",216,3,70,"lose","go","gal","b","elianto",1,0,NA,0,0,"-10",0
"736",1230,2,3,"NA",220,4,70,"lose","go","gal","b","elianto",1,0,NA,0,0,"-10",0
"737",1230,2,3,"NA",228,5,70,"lose","go","gal","b","elianto",1,0,NA,0,0,"-10",0
"738",1230,2,3,"NA",232,6,70,"lose","go","gal","b","elianto",1,0,NA,0,0,"-10",0
"739",1230,2,3,"NA",236,7,70,"lose","go","gal","b","elianto",1,0,NA,0,0,"-10",0
"740",1230,2,3,"NA",240,8,70,"lose","go","gal","b","elianto",1,0,NA,0,0,"-10",0
"741",1230,2,3,"NA",243,9,70,"lose","go","gal","b","elianto",1,0,NA,0,0,"-10",0
"742",1230,2,3,"NA",245,10,70,"lose","go","gal","b","elianto",1,0,NA,0,0,"-10",0
"743",1230,2,3,"NA",251,11,70,"lose","go","gal","b","elianto",1,0,NA,0,0,"-10",0
"744",1230,2,3,"NA",255,12,70,"lose","go","gal","b","elianto",1,0,NA,0,0,"-10",0
"745",1230,2,3,"NA",259,13,70,"lose","go","gal","b","elianto",1,0,NA,0,1,"0",0
"746",1230,2,3,"NA",188,1,60,"win","no-go","ngw","c","elianto",0,1,675.09999999404,0,0,"0",1
"747",1230,2,3,"NA",191,2,60,"win","no-go","ngw","c","elianto",0,1,737.39999999851,0,0,"0",1
"748",1230,2,3,"NA",196,3,60,"win","no-go","ngw","c","elianto",0,1,830.20000000298,0,0,"0",1
"749",1230,2,3,"NA",198,4,60,"win","no-go","ngw","c","elianto",0,1,610.59999999404,0,1,"+10",1
"750",1230,2,3,"NA",204,5,60,"win","no-go","ngw","c","elianto",0,1,1046.19999999553,0,0,"0",1
"751",1230,2,3,"NA",207,6,60,"win","no-go","ngw","c","elianto",0,1,625.5,0,0,"0",1
"752",1230,2,3,"NA",212,7,60,"win","no-go","ngw","c","elianto",0,1,800,0,0,"0",1
"753",1230,2,3,"NA",215,8,60,"win","no-go","ngw","c","elianto",0,1,708.80000000447,0,0,"0",1
"754",1230,2,3,"NA",217,9,60,"win","no-go","ngw","c","elianto",0,1,861.5,0,0,"0",1
"755",1230,2,3,"NA",223,10,60,"win","no-go","ngw","c","elianto",0,1,1315.69999999553,0,0,"0",1
"756",1230,2,3,"NA",230,11,60,"win","no-go","ngw","c","elianto",0,0,NA,1,0,"+10",0
"757",1230,2,3,"NA",234,12,60,"win","no-go","ngw","c","elianto",0,1,652.09999999404,0,0,"0",1
"758",1230,2,3,"NA",238,13,60,"win","no-go","ngw","c","elianto",0,1,560.89999999851,0,1,"+10",1
"759",1230,2,2,"NA",24,1,120,"win","go","gw","d","elianto",1,1,644.29999999702,1,0,"+10",1
"760",1230,2,2,"NA",26,2,120,"win","go","gw","d","elianto",1,1,584.89999999851,1,0,"+10",1
"761",1230,2,2,"NA",30,3,120,"win","go","gw","d","elianto",1,1,644.30000000447,1,0,"+10",1
"762",1230,2,2,"NA",35,4,120,"win","go","gw","d","elianto",1,1,609.30000000447,1,0,"+10",1
"763",1230,2,2,"NA",39,5,120,"win","go","gw","d","elianto",1,1,561.10000000149,1,1,"0",3
"764",1230,2,2,"NA",41,6,120,"win","go","gw","d","elianto",1,1,810.29999999702,1,0,"+10",1
"765",1230,2,2,"NA",51,7,120,"win","go","gw","d","elianto",1,1,709.39999999851,1,0,"+10",1
"766",1230,2,2,"NA",53,8,120,"win","go","gw","d","elianto",1,1,709.79999999702,1,1,"0",1
"767",1230,2,2,"NA",59,9,120,"win","go","gw","d","elianto",1,1,276.10000000149,1,0,"+10",2
"768",1230,2,2,"NA",64,10,120,"win","go","gw","d","elianto",1,1,800.89999999851,1,0,"+10",1
"769",1230,2,2,"NA",67,11,120,"win","go","gw","d","elianto",1,1,860.39999999851,1,1,"0",4
"770",1230,2,2,"NA",71,12,120,"win","go","gw","d","elianto",1,1,806,1,1,"0",2
"771",1230,2,2,"NA",74,13,120,"win","go","gw","d","elianto",1,0,NA,0,0,"0",0
"772",1230,2,2,"NA",22,1,140,"lose","no-go","ngal","e","elianto",0,0,NA,1,0,"0",1
"773",1230,2,2,"NA",28,2,140,"lose","no-go","ngal","e","elianto",0,0,NA,1,1,"-10",0
"774",1230,2,2,"NA",29,3,140,"lose","no-go","ngal","e","elianto",0,0,NA,1,0,"0",0
"775",1230,2,2,"NA",33,4,140,"lose","no-go","ngal","e","elianto",0,0,NA,1,0,"0",0
"776",1230,2,2,"NA",37,5,140,"lose","no-go","ngal","e","elianto",0,0,NA,1,0,"0",0
"777",1230,2,2,"NA",42,6,140,"lose","no-go","ngal","e","elianto",0,0,NA,1,0,"0",0
"778",1230,2,2,"NA",45,7,140,"lose","no-go","ngal","e","elianto",0,0,NA,1,0,"0",0
"779",1230,2,2,"NA",56,8,140,"lose","no-go","ngal","e","elianto",0,0,NA,1,1,"-10",0
"780",1230,2,2,"NA",62,9,140,"lose","no-go","ngal","e","elianto",0,0,NA,1,0,"0",0
"781",1230,2,2,"NA",68,10,140,"lose","no-go","ngal","e","elianto",0,1,812,0,0,"-10",4
"782",1230,2,3,"NA",213,1,90,"win","go","gw","f","elianto",1,1,750.39999999851,1,0,"+10",1
"783",1230,2,3,"NA",219,2,90,"win","go","gw","f","elianto",1,1,794.29999999702,1,0,"+10",1
"784",1230,2,3,"NA",224,3,90,"win","go","gw","f","elianto",1,0,NA,0,0,"0",0
"785",1230,2,3,"NA",226,4,90,"win","go","gw","f","elianto",1,1,528.60000000149,1,0,"+10",1
"786",1230,2,3,"NA",231,5,90,"win","go","gw","f","elianto",1,1,723.20000000298,1,0,"+10",1
"787",1230,2,3,"NA",233,6,90,"win","go","gw","f","elianto",1,1,453.69999999553,1,0,"+10",1
"788",1230,2,3,"NA",237,7,90,"win","go","gw","f","elianto",1,1,524.29999999702,1,0,"+10",1
"789",1230,2,3,"NA",244,8,90,"win","go","gw","f","elianto",1,1,490,1,0,"+10",1
"790",1230,2,3,"NA",248,9,90,"win","go","gw","f","elianto",1,1,984.19999999553,1,0,"+10",1
"791",1230,2,3,"NA",250,10,90,"win","go","gw","f","elianto",1,1,488.5,1,0,"+10",1
"792",1230,2,3,"NA",253,11,90,"win","go","gw","f","elianto",1,1,781.39999999851,1,0,"+10",1
"793",1230,2,3,"NA",257,12,90,"win","go","gw","f","elianto",1,1,512.89999999851,1,0,"+10",1
"794",1230,2,2,"NA",79,1,180,"lose","no-go","ngal","g","elianto",0,0,NA,1,1,"-10",0
"795",1230,2,2,"NA",82,2,180,"lose","no-go","ngal","g","elianto",0,1,873,0,0,"-10",2
"796",1230,2,2,"NA",85,3,180,"lose","no-go","ngal","g","elianto",0,0,NA,1,0,"0",0
"797",1230,2,2,"NA",89,4,180,"lose","no-go","ngal","g","elianto",0,0,NA,1,0,"0",0
"798",1230,2,2,"NA",94,5,180,"lose","no-go","ngal","g","elianto",0,0,NA,1,0,"0",0
"799",1230,2,2,"NA",100,6,180,"lose","no-go","ngal","g","elianto",0,0,NA,1,0,"0",0
"800",1230,2,2,"NA",104,7,180,"lose","no-go","ngal","g","elianto",0,0,NA,1,0,"0",0
"801",1230,2,2,"NA",105,8,180,"lose","no-go","ngal","g","elianto",0,0,NA,1,1,"-10",0
"802",1230,2,2,"NA",110,9,180,"lose","no-go","ngal","g","elianto",0,0,NA,1,0,"0",0
"803",1230,2,2,"NA",120,10,180,"lose","no-go","ngal","g","elianto",0,0,NA,1,1,"-10",1
"804",1230,2,2,"NA",128,11,180,"lose","no-go","ngal","g","elianto",0,0,NA,1,0,"0",0
"805",1230,2,2,"NA",129,12,180,"lose","no-go","ngal","g","elianto",0,0,NA,1,0,"0",0
"806",1230,2,2,"NA",134,13,180,"lose","no-go","ngal","g","elianto",0,0,NA,1,1,"-10",0
"807",1230,2,2,"NA",138,14,180,"lose","no-go","ngal","g","elianto",0,0,NA,1,0,"0",0
"808",1230,2,3,"NA",143,1,20,"lose","no-go","ngal","h","elianto",0,0,NA,1,0,"0",0
"809",1230,2,3,"NA",145,2,20,"lose","no-go","ngal","h","elianto",0,0,NA,1,0,"0",0
"810",1230,2,3,"NA",152,3,20,"lose","no-go","ngal","h","elianto",0,0,NA,1,0,"0",0
"811",1230,2,3,"NA",154,4,20,"lose","no-go","ngal","h","elianto",0,0,NA,1,1,"-10",0
"812",1230,2,3,"NA",157,5,20,"lose","no-go","ngal","h","elianto",0,0,NA,1,0,"0",0
"813",1230,2,3,"NA",163,6,20,"lose","no-go","ngal","h","elianto",0,0,NA,1,0,"0",0
"814",1230,2,3,"NA",166,7,20,"lose","no-go","ngal","h","elianto",0,0,NA,1,0,"0",0
"815",1230,2,3,"NA",169,8,20,"lose","no-go","ngal","h","elianto",0,0,NA,1,1,"-10",0
"816",1230,2,3,"NA",176,9,20,"lose","no-go","ngal","h","elianto",0,0,NA,1,0,"0",0
"817",1230,2,3,"NA",179,10,20,"lose","no-go","ngal","h","elianto",0,0,NA,1,0,"0",0
"818",1230,2,3,"NA",183,11,20,"lose","no-go","ngal","h","elianto",0,0,NA,1,0,"0",0
"819",1230,2,3,"NA",187,12,20,"lose","no-go","ngal","h","elianto",0,0,NA,1,0,"0",0
"820",1230,2,3,"NA",193,13,20,"lose","no-go","ngal","h","elianto",0,0,NA,1,0,"0",0
"821",1230,2,3,"NA",199,14,20,"lose","no-go","ngal","h","elianto",0,0,NA,1,0,"0",0
"822",1230,2,3,"NA",202,15,20,"lose","no-go","ngal","h","elianto",0,0,NA,1,0,"0",0
"823",1230,2,2,"NA",21,1,130,"lose","no-go","ngal","j","elianto",0,0,NA,1,0,"0",0
"824",1230,2,2,"NA",27,2,130,"lose","no-go","ngal","j","elianto",0,0,NA,1,0,"0",0
"825",1230,2,2,"NA",31,3,130,"lose","no-go","ngal","j","elianto",0,0,NA,1,0,"0",0
"826",1230,2,2,"NA",34,4,130,"lose","no-go","ngal","j","elianto",0,0,NA,1,0,"0",0
"827",1230,2,2,"NA",40,5,130,"lose","no-go","ngal","j","elianto",0,0,NA,1,0,"0",0
"828",1230,2,2,"NA",43,6,130,"lose","no-go","ngal","j","elianto",0,0,NA,1,0,"0",0
"829",1230,2,2,"NA",48,7,130,"lose","no-go","ngal","j","elianto",0,0,NA,1,0,"0",0
"830",1230,2,2,"NA",49,8,130,"lose","no-go","ngal","j","elianto",0,0,NA,1,0,"0",0
"831",1230,2,2,"NA",54,9,130,"lose","no-go","ngal","j","elianto",0,0,NA,1,0,"0",0
"832",1230,2,2,"NA",57,10,130,"lose","no-go","ngal","j","elianto",0,0,NA,1,0,"0",0
"833",1230,2,2,"NA",96,1,190,"win","no-go","ngw","l","elianto",0,1,962.90000000596,0,0,"0",1
"834",1230,2,2,"NA",98,2,190,"win","no-go","ngw","l","elianto",0,1,800,0,1,"+10",1
"835",1230,2,2,"NA",103,3,190,"win","no-go","ngw","l","elianto",0,1,1885.39999999851,0,1,"+10",1
"836",1230,2,2,"NA",107,4,190,"win","no-go","ngw","l","elianto",0,1,1505.79999999702,0,0,"0",1
"837",1230,2,2,"NA",109,5,190,"win","no-go","ngw","l","elianto",0,1,861.89999999851,0,1,"+10",1
"838",1230,2,2,"NA",114,6,190,"win","no-go","ngw","l","elianto",0,1,706.30000000447,0,0,"0",1
"839",1230,2,2,"NA",119,7,190,"win","no-go","ngw","l","elianto",0,1,675.79999999702,0,0,"0",1
"840",1230,2,2,"NA",122,8,190,"win","no-go","ngw","l","elianto",0,1,600.39999999851,0,1,"+10",2
"841",1230,2,2,"NA",125,9,190,"win","no-go","ngw","l","elianto",0,1,507.89999999851,0,0,"0",1
"842",1230,2,2,"NA",130,10,190,"win","no-go","ngw","l","elianto",0,1,626,0,0,"0",2
"843",1230,2,2,"NA",133,11,190,"win","no-go","ngw","l","elianto",0,0,NA,1,0,"+10",1
"844",1230,2,2,"NA",137,12,190,"win","no-go","ngw","l","elianto",0,1,584.79999999702,0,0,"0",1
"845",1230,2,3,"NA",144,1,40,"lose","go","gal","m","elianto",1,0,NA,0,0,"-10",1
"846",1230,2,3,"NA",148,2,40,"lose","go","gal","m","elianto",1,0,NA,0,0,"-10",0
"847",1230,2,3,"NA",150,3,40,"lose","go","gal","m","elianto",1,0,NA,0,0,"-10",0
"848",1230,2,3,"NA",156,4,40,"lose","go","gal","m","elianto",1,0,NA,0,0,"-10",1
"849",1230,2,3,"NA",160,5,40,"lose","go","gal","m","elianto",1,0,NA,0,1,"0",0
"850",1230,2,3,"NA",162,6,40,"lose","go","gal","m","elianto",1,0,NA,0,0,"-10",0
"851",1230,2,3,"NA",167,7,40,"lose","go","gal","m","elianto",1,0,NA,0,0,"-10",0
"852",1230,2,3,"NA",172,8,40,"lose","go","gal","m","elianto",1,0,NA,0,0,"-10",0
"853",1230,2,3,"NA",175,9,40,"lose","go","gal","m","elianto",1,0,NA,0,0,"-10",0
"854",1230,2,3,"NA",222,1,100,"win","go","gw","n","elianto",1,1,802.5,1,0,"+10",1
"855",1230,2,3,"NA",225,2,100,"win","go","gw","n","elianto",1,1,622.10000000149,1,0,"+10",1
"856",1230,2,3,"NA",229,3,100,"win","go","gw","n","elianto",1,1,641,1,0,"+10",1
"857",1230,2,3,"NA",235,4,100,"win","go","gw","n","elianto",1,1,612.10000000149,1,0,"+10",1
"858",1230,2,3,"NA",239,5,100,"win","go","gw","n","elianto",1,1,497.39999999851,1,0,"+10",1
"859",1230,2,3,"NA",241,6,100,"win","go","gw","n","elianto",1,1,596.60000000149,1,1,"0",1
"860",1230,2,3,"NA",247,7,100,"win","go","gw","n","elianto",1,1,537.59999999404,1,0,"+10",1
"861",1230,2,3,"NA",252,8,100,"win","go","gw","n","elianto",1,1,736.10000000149,1,1,"0",1
"862",1230,2,3,"NA",254,9,100,"win","go","gw","n","elianto",1,1,892,1,0,"+10",1
"863",1230,2,3,"NA",258,10,100,"win","go","gw","n","elianto",1,1,669.39999999851,1,0,"+10",1
"864",1230,2,2,"NA",70,1,160,"win","go","gw","p","elianto",1,1,884.79999999702,1,0,"+10",2
"865",1230,2,2,"NA",75,2,160,"win","go","gw","p","elianto",1,1,888,1,0,"+10",1
"866",1230,2,2,"NA",80,3,160,"win","go","gw","p","elianto",1,1,593.5,1,0,"+10",1
"867",1230,2,2,"NA",81,4,160,"win","go","gw","p","elianto",1,0,NA,0,0,"0",0
"868",1230,2,2,"NA",86,5,160,"win","go","gw","p","elianto",1,1,583.20000000298,1,1,"0",1
"869",1230,2,2,"NA",91,6,160,"win","go","gw","p","elianto",1,1,798.70000000298,1,0,"+10",1
"870",1230,2,2,"NA",93,7,160,"win","go","gw","p","elianto",1,1,547.80000000447,1,0,"+10",1
"871",1230,2,2,"NA",99,8,160,"win","go","gw","p","elianto",1,1,672.79999999702,1,0,"+10",1
"872",1230,2,2,"NA",101,9,160,"win","go","gw","p","elianto",1,1,478.89999999851,1,0,"+10",1
"873",1230,2,2,"NA",106,10,160,"win","go","gw","p","elianto",1,1,664.20000000298,1,0,"+10",1
"874",1230,2,2,"NA",111,11,160,"win","go","gw","p","elianto",1,1,593.39999999851,1,0,"+10",1
"875",1230,2,2,"NA",113,12,160,"win","go","gw","p","elianto",1,1,580.19999999553,1,0,"+10",1
"876",1230,2,2,"NA",118,13,160,"win","go","gw","p","elianto",1,1,607.19999999553,1,1,"0",1
"877",1230,2,2,"NA",121,14,160,"win","go","gw","p","elianto",1,1,533.19999999553,1,0,"+10",1
"878",1230,2,3,"NA",141,1,30,"win","no-go","ngw","r","elianto",0,1,271.10000000149,0,0,"0",6
"879",1230,2,3,"NA",146,2,30,"win","no-go","ngw","r","elianto",0,1,625.70000000298,0,0,"0",1
"880",1230,2,3,"NA",151,3,30,"win","no-go","ngw","r","elianto",0,1,1556.39999999851,0,0,"0",1
"881",1230,2,3,"NA",155,4,30,"win","no-go","ngw","r","elianto",0,0,NA,1,0,"+10",0
"882",1230,2,3,"NA",158,5,30,"win","no-go","ngw","r","elianto",0,0,NA,1,1,"0",0
"883",1230,2,3,"NA",164,6,30,"win","no-go","ngw","r","elianto",0,1,664.60000000149,0,1,"+10",1
"884",1230,2,3,"NA",165,7,30,"win","no-go","ngw","r","elianto",0,1,816.60000000149,0,1,"+10",1
"885",1230,2,3,"NA",171,8,30,"win","no-go","ngw","r","elianto",0,1,670.29999999702,0,0,"0",1
"886",1230,2,3,"NA",174,9,30,"win","no-go","ngw","r","elianto",0,1,764.70000000298,0,0,"0",1
"887",1230,2,3,"NA",180,10,30,"win","no-go","ngw","r","elianto",0,0,NA,1,1,"0",1
"888",1230,2,3,"NA",181,11,30,"win","no-go","ngw","r","elianto",0,1,573.29999999702,0,0,"0",1
"889",1230,2,3,"NA",186,12,30,"win","no-go","ngw","r","elianto",0,1,661.79999999702,0,0,"0",1
"890",1230,2,3,"NA",192,13,30,"win","no-go","ngw","r","elianto",0,1,589.29999999702,0,1,"+10",1
"891",1230,2,3,"NA",194,14,30,"win","no-go","ngw","r","elianto",0,1,790.69999999553,0,0,"0",1
"892",1230,2,2,"NA",46,1,150,"win","no-go","ngw","s","elianto",0,1,664,0,0,"0",1
"893",1230,2,2,"NA",50,2,150,"win","no-go","ngw","s","elianto",0,1,665.10000000149,0,0,"0",1
"894",1230,2,2,"NA",55,3,150,"win","no-go","ngw","s","elianto",0,1,519.89999999851,0,0,"0",1
"895",1230,2,2,"NA",58,4,150,"win","no-go","ngw","s","elianto",0,1,641.19999999553,0,0,"0",1
"896",1230,2,2,"NA",61,5,150,"win","no-go","ngw","s","elianto",0,0,NA,1,0,"+10",2
"897",1230,2,2,"NA",66,6,150,"win","no-go","ngw","s","elianto",0,1,725.89999999851,0,0,"0",1
"898",1230,2,2,"NA",69,7,150,"win","no-go","ngw","s","elianto",0,1,670.89999999851,0,0,"0",2
"899",1230,2,2,"NA",73,8,150,"win","no-go","ngw","s","elianto",0,1,1180.10000000149,0,0,"0",1
"900",1230,2,2,"NA",78,9,150,"win","no-go","ngw","s","elianto",0,1,514.89999999851,0,1,"+10",1
"901",1230,2,2,"NA",83,10,150,"win","no-go","ngw","s","elianto",0,1,620.5,0,1,"+10",2
"902",1230,2,2,"NA",87,11,150,"win","no-go","ngw","s","elianto",0,1,638.39999999851,0,0,"0",1
"903",1230,2,2,"NA",92,12,150,"win","no-go","ngw","s","elianto",0,1,546.20000000298,0,0,"0",1
"904",1230,2,3,"NA",203,1,80,"lose","no-go","ngal","t","elianto",0,0,NA,1,1,"-10",0
"905",1230,2,3,"NA",205,2,80,"lose","no-go","ngal","t","elianto",0,0,NA,1,0,"0",0
"906",1230,2,3,"NA",210,3,80,"lose","no-go","ngal","t","elianto",0,0,NA,1,0,"0",0
"907",1230,2,3,"NA",214,4,80,"lose","no-go","ngal","t","elianto",0,0,NA,1,0,"0",0
"908",1230,2,3,"NA",218,5,80,"lose","no-go","ngal","t","elianto",0,0,NA,1,0,"0",0
"909",1230,2,3,"NA",221,6,80,"lose","no-go","ngal","t","elianto",0,0,NA,1,0,"0",0
"910",1230,2,3,"NA",242,7,80,"lose","no-go","ngal","t","elianto",0,0,NA,1,0,"0",0
"911",1230,2,3,"NA",246,8,80,"lose","no-go","ngal","t","elianto",0,0,NA,1,0,"0",0
"912",1230,2,3,"NA",249,9,80,"lose","no-go","ngal","t","elianto",0,0,NA,1,1,"-10",0
"913",1230,2,3,"NA",256,10,80,"lose","no-go","ngal","t","elianto",0,0,NA,1,0,"0",0
"914",1230,2,3,"NA",260,11,80,"lose","no-go","ngal","t","elianto",0,0,NA,1,0,"0",0
"915",1230,2,2,"NA",102,1,200,"win","no-go","ngw","u","elianto",0,1,551.5,0,0,"0",1
"916",1230,2,2,"NA",108,2,200,"win","no-go","ngw","u","elianto",0,1,624.89999999851,0,1,"+10",1
"917",1230,2,2,"NA",112,3,200,"win","no-go","ngw","u","elianto",0,1,1044.29999999702,0,0,"0",1
"918",1230,2,2,"NA",115,4,200,"win","no-go","ngw","u","elianto",0,0,NA,1,0,"+10",1
"919",1230,2,2,"NA",123,5,200,"win","no-go","ngw","u","elianto",0,1,531.29999999702,0,1,"+10",1
"920",1230,2,2,"NA",126,6,200,"win","no-go","ngw","u","elianto",0,1,855.29999999702,0,1,"+10",1
"921",1230,2,2,"NA",131,7,200,"win","no-go","ngw","u","elianto",0,1,505.79999999702,0,0,"0",1
"922",1230,2,2,"NA",136,8,200,"win","no-go","ngw","u","elianto",0,1,497.29999999702,0,0,"0",1
"923",1230,2,2,"NA",140,9,200,"win","no-go","ngw","u","elianto",0,1,780.39999999851,0,0,"0",1
"924",1230,2,2,"NA",23,1,110,"lose","go","gal","w","elianto",1,0,NA,0,0,"-10",0
"925",1230,2,2,"NA",25,2,110,"lose","go","gal","w","elianto",1,0,NA,0,0,"-10",0
"926",1230,2,2,"NA",32,3,110,"lose","go","gal","w","elianto",1,0,NA,0,0,"-10",0
"927",1230,2,2,"NA",36,4,110,"lose","go","gal","w","elianto",1,0,NA,0,0,"-10",0
"928",1230,2,2,"NA",38,5,110,"lose","go","gal","w","elianto",1,0,NA,0,0,"-10",0
"929",1230,2,2,"NA",44,6,110,"lose","go","gal","w","elianto",1,0,NA,0,0,"-10",0
"930",1230,2,2,"NA",47,7,110,"lose","go","gal","w","elianto",1,0,NA,0,0,"-10",1
"931",1230,2,2,"NA",52,8,110,"lose","go","gal","w","elianto",1,0,NA,0,0,"-10",0
"932",1230,2,2,"NA",60,9,110,"lose","go","gal","w","elianto",1,0,NA,0,0,"-10",0
"933",1230,2,2,"NA",63,10,110,"lose","go","gal","w","elianto",1,0,NA,0,0,"-10",0
"934",1230,2,2,"NA",65,11,110,"lose","go","gal","w","elianto",1,0,NA,0,0,"-10",0
"935",1230,2,2,"NA",72,12,110,"lose","go","gal","w","elianto",1,0,NA,0,1,"0",0
"936",1230,2,2,"NA",76,13,110,"lose","go","gal","w","elianto",1,0,NA,0,0,"-10",0
"937",1230,2,2,"NA",77,14,110,"lose","go","gal","w","elianto",1,0,NA,0,0,"-10",1
"938",1230,2,3,"NA",142,1,10,"lose","go","gal","y","elianto",1,0,NA,0,0,"-10",1
"939",1230,2,3,"NA",147,2,10,"lose","go","gal","y","elianto",1,0,NA,0,0,"-10",0
"940",1230,2,3,"NA",149,3,10,"lose","go","gal","y","elianto",1,0,NA,0,1,"0",0
"941",1230,2,3,"NA",153,4,10,"lose","go","gal","y","elianto",1,0,NA,0,0,"-10",0
"942",1230,2,3,"NA",159,5,10,"lose","go","gal","y","elianto",1,0,NA,0,0,"-10",0
"943",1230,2,3,"NA",161,6,10,"lose","go","gal","y","elianto",1,0,NA,0,1,"0",0
"944",1230,2,3,"NA",168,7,10,"lose","go","gal","y","elianto",1,0,NA,0,1,"0",0
"945",1230,2,3,"NA",170,8,10,"lose","go","gal","y","elianto",1,0,NA,0,0,"-10",0
"946",1230,2,3,"NA",173,9,10,"lose","go","gal","y","elianto",1,0,NA,0,0,"-10",0
"947",1230,2,3,"NA",177,10,10,"lose","go","gal","y","elianto",1,0,NA,0,0,"-10",0
"948",1230,2,3,"NA",184,11,10,"lose","go","gal","y","elianto",1,0,NA,0,0,"-10",0
"949",1230,2,3,"NA",189,12,10,"lose","go","gal","y","elianto",1,0,NA,0,0,"-10",0
"950",1230,2,3,"NA",178,1,50,"win","go","gw","z","elianto",1,1,929.10000000149,1,0,"+10",1
"951",1230,2,3,"NA",182,2,50,"win","go","gw","z","elianto",1,1,523.40000000596,1,0,"+10",1
"952",1230,2,3,"NA",185,3,50,"win","go","gw","z","elianto",1,1,648.60000000149,1,0,"+10",1
"953",1230,2,3,"NA",190,4,50,"win","go","gw","z","elianto",1,1,638.79999999702,1,0,"+10",1
"954",1230,2,3,"NA",195,5,50,"win","go","gw","z","elianto",1,1,711.79999999702,1,0,"+10",1
"955",1230,2,3,"NA",197,6,50,"win","go","gw","z","elianto",1,1,640,1,0,"+10",1
"956",1230,2,3,"NA",200,7,50,"win","go","gw","z","elianto",1,1,477.89999999851,1,0,"+10",1
"957",1230,2,3,"NA",201,8,50,"win","go","gw","z","elianto",1,1,453.29999999702,1,1,"0",1
"958",1230,2,3,"NA",208,9,50,"win","go","gw","z","elianto",1,1,789.80000000447,1,0,"+10",1
"959",1230,2,3,"NA",209,10,50,"win","go","gw","z","elianto",1,1,638,1,0,"+10",1
"960",1230,2,3,"NA",227,11,50,"win","go","gw","z","elianto",1,1,623.70000000298,1,0,"+10",1
"961",1267,2,3,"NA",143,1,170,"lose","no-go","ngal","a","elianto",0,1,435.300000011921,0,1,"0",3
"962",1267,2,3,"NA",145,2,170,"lose","no-go","ngal","a","elianto",0,1,408.5,0,0,"-10",1
"963",1267,2,3,"NA",149,3,170,"lose","no-go","ngal","a","elianto",0,1,481.099999964237,0,0,"-10",1
"964",1267,2,3,"NA",154,4,170,"lose","no-go","ngal","a","elianto",0,1,671.800000011921,0,0,"-10",2
"965",1267,2,3,"NA",158,5,170,"lose","no-go","ngal","a","elianto",0,1,306.600000023842,0,0,"-10",1
"966",1267,2,3,"NA",162,6,170,"lose","no-go","ngal","a","elianto",0,0,NA,1,1,"-10",2
"967",1267,2,3,"NA",167,7,170,"lose","no-go","ngal","a","elianto",0,0,NA,1,0,"0",0
"968",1267,2,3,"NA",174,8,170,"lose","no-go","ngal","a","elianto",0,1,248.199999988079,0,0,"-10",1
"969",1267,2,3,"NA",182,9,170,"lose","no-go","ngal","a","elianto",0,0,NA,1,0,"0",3
"970",1267,2,3,"NA",187,10,170,"lose","no-go","ngal","a","elianto",0,1,674.100000023842,0,0,"-10",3
"971",1267,2,3,"NA",203,11,170,"lose","no-go","ngal","a","elianto",0,0,NA,1,0,"0",2
"972",1267,2,3,"NA",205,12,170,"lose","no-go","ngal","a","elianto",0,1,123.5,0,0,"-10",3
"973",1267,2,3,"NA",209,13,170,"lose","no-go","ngal","a","elianto",0,1,446.60000000149,0,0,"-10",3
"974",1267,2,3,"NA",216,14,170,"lose","no-go","ngal","a","elianto",0,1,235.89999999851,0,1,"0",4
"975",1267,2,3,"NA",219,15,170,"lose","no-go","ngal","a","elianto",0,1,737.300000000745,0,0,"-10",3
"976",1267,2,2,"NA",87,1,70,"lose","go","gal","b","elianto",1,1,49.8999999761581,1,0,"0",3
"977",1267,2,2,"NA",92,2,70,"lose","go","gal","b","elianto",1,1,544.100000023842,1,0,"0",2
"978",1267,2,2,"NA",93,3,70,"lose","go","gal","b","elianto",1,0,NA,0,0,"-10",1
"979",1267,2,2,"NA",99,4,70,"lose","go","gal","b","elianto",1,1,1636,1,0,"0",2
"980",1267,2,2,"NA",107,5,70,"lose","go","gal","b","elianto",1,1,633.599999964237,1,1,"-10",1
"981",1267,2,2,"NA",109,6,70,"lose","go","gal","b","elianto",1,1,291.199999988079,1,0,"0",2
"982",1267,2,2,"NA",115,7,70,"lose","go","gal","b","elianto",1,1,394.599999964237,1,0,"0",1
"983",1267,2,2,"NA",118,8,70,"lose","go","gal","b","elianto",1,1,375.5,1,0,"0",2
"984",1267,2,2,"NA",124,9,70,"lose","go","gal","b","elianto",1,1,547.199999988079,1,0,"0",1
"985",1267,2,2,"NA",127,10,70,"lose","go","gal","b","elianto",1,0,NA,0,0,"-10",1
"986",1267,2,2,"NA",132,11,70,"lose","go","gal","b","elianto",1,1,1323.69999998808,1,0,"0",1
"987",1267,2,2,"NA",136,12,70,"lose","go","gal","b","elianto",1,1,1604.69999998808,1,1,"-10",3
"988",1267,2,2,"NA",138,13,70,"lose","go","gal","b","elianto",1,1,1104.39999997616,1,0,"0",1
"989",1267,2,2,"NA",23,14,70,"lose","go","gal","b","elianto",1,1,8.09999999776483,1,0,"0",2
"990",1267,2,2,"NA",25,15,70,"lose","go","gal","b","elianto",1,1,158.39999999851,1,0,"0",2
"991",1267,2,2,"NA",65,1,60,"win","no-go","ngw","c","elianto",0,1,311,0,0,"0",2
"992",1267,2,2,"NA",69,2,60,"win","no-go","ngw","c","elianto",0,1,366.5,0,0,"0",2
"993",1267,2,2,"NA",74,3,60,"win","no-go","ngw","c","elianto",0,1,132.399999976158,0,0,"0",1
"994",1267,2,2,"NA",79,4,60,"win","no-go","ngw","c","elianto",0,1,1626,0,0,"0",1
"995",1267,2,2,"NA",83,5,60,"win","no-go","ngw","c","elianto",0,1,626.099999964237,0,1,"+10",3
"996",1267,2,2,"NA",85,6,60,"win","no-go","ngw","c","elianto",0,1,197.299999952316,0,0,"0",1
"997",1267,2,2,"NA",90,7,60,"win","no-go","ngw","c","elianto",0,1,198,0,0,"0",2
"998",1267,2,2,"NA",94,8,60,"win","no-go","ngw","c","elianto",0,1,848.800000011921,0,0,"0",2
"999",1267,2,2,"NA",100,9,60,"win","no-go","ngw","c","elianto",0,1,636.699999988079,0,0,"0",1
"1000",1267,2,2,"NA",104,10,60,"win","no-go","ngw","c","elianto",0,1,1181.69999998808,0,0,"0",2
"1001",1267,2,2,"NA",110,11,60,"win","no-go","ngw","c","elianto",0,1,451.399999976158,0,0,"0",4
"1002",1267,2,2,"NA",114,12,60,"win","no-go","ngw","c","elianto",0,1,90.0999999642372,0,0,"0",2
"1003",1267,2,2,"NA",120,13,60,"win","no-go","ngw","c","elianto",0,1,708.400000035763,0,1,"+10",1
"1004",1267,2,2,"NA",47,14,60,"win","no-go","ngw","c","elianto",0,1,224.300000000745,0,0,"0",2
"1005",1267,2,2,"NA",50,15,60,"win","no-go","ngw","c","elianto",0,1,156.099999997765,0,0,"0",2
"1006",1267,2,3,"NA",214,1,120,"win","no-go","ngw","d","elianto",0,1,263.200000047684,0,0,"0",1
"1007",1267,2,3,"NA",219,2,120,"win","no-go","ngw","d","elianto",0,1,249.199999988079,0,0,"0",1
"1008",1267,2,3,"NA",222,3,120,"win","no-go","ngw","d","elianto",0,1,450.599999964237,0,0,"0",1
"1009",1267,2,3,"NA",227,4,120,"win","no-go","ngw","d","elianto",0,1,407.900000035763,0,0,"0",1
"1010",1267,2,3,"NA",229,5,120,"win","no-go","ngw","d","elianto",0,1,377.800000011921,0,1,"+10",1
"1011",1267,2,3,"NA",235,6,120,"win","no-go","ngw","d","elianto",0,1,516.800000011921,0,0,"0",2
"1012",1267,2,3,"NA",238,7,120,"win","no-go","ngw","d","elianto",0,1,394.800000011921,0,0,"0",1
"1013",1267,2,3,"NA",243,8,120,"win","no-go","ngw","d","elianto",0,1,655,0,0,"0",1
"1014",1267,2,3,"NA",248,9,120,"win","no-go","ngw","d","elianto",0,0,NA,1,0,"+10",1
"1015",1267,2,3,"NA",252,10,120,"win","no-go","ngw","d","elianto",0,0,NA,1,0,"+10",2
"1016",1267,2,3,"NA",255,11,120,"win","no-go","ngw","d","elianto",0,1,601.100000023842,0,0,"0",1
"1017",1267,2,3,"NA",259,12,120,"win","no-go","ngw","d","elianto",0,1,250.300000011921,0,0,"0",1
"1018",1267,2,3,"NA",141,13,120,"win","no-go","ngw","d","elianto",0,1,166.900000002235,0,0,"0",3
"1019",1267,2,3,"NA",146,14,120,"win","no-go","ngw","d","elianto",0,1,777.5,0,0,"0",1
"1020",1267,2,3,"NA",152,15,120,"win","no-go","ngw","d","elianto",0,1,102.800000000745,0,0,"0",1
"1021",1267,2,3,"NA",202,1,140,"lose","go","gal","e","elianto",1,0,NA,0,0,"-10",0
"1022",1267,2,3,"NA",205,2,140,"lose","go","gal","e","elianto",1,0,NA,0,0,"-10",1
"1023",1267,2,3,"NA",210,3,140,"lose","go","gal","e","elianto",1,1,261,1,0,"0",1
"1024",1267,2,3,"NA",216,4,140,"lose","go","gal","e","elianto",1,1,545.599999964237,1,0,"0",1
"1025",1267,2,3,"NA",217,5,140,"lose","go","gal","e","elianto",1,1,380.099999964237,1,1,"-10",1
"1026",1267,2,3,"NA",234,6,140,"lose","go","gal","e","elianto",1,1,402.199999988079,1,1,"-10",1
"1027",1267,2,3,"NA",239,7,140,"lose","go","gal","e","elianto",1,1,323.100000023842,1,0,"0",1
"1028",1267,2,3,"NA",244,8,140,"lose","go","gal","e","elianto",1,1,214.5,1,0,"0",1
"1029",1267,2,3,"NA",247,9,140,"lose","go","gal","e","elianto",1,0,NA,0,0,"-10",1
"1030",1267,2,3,"NA",251,10,140,"lose","go","gal","e","elianto",1,1,377.100000023842,1,1,"-10",2
"1031",1267,2,3,"NA",254,11,140,"lose","go","gal","e","elianto",1,1,551.800000011921,1,0,"0",1
"1032",1267,2,3,"NA",257,12,140,"lose","go","gal","e","elianto",1,1,1519.70000004768,1,0,"0",1
"1033",1267,2,3,"NA",144,13,140,"lose","go","gal","e","elianto",1,1,180.699999999255,1,1,"-10",1
"1034",1267,2,3,"NA",148,14,140,"lose","go","gal","e","elianto",1,1,128.300000000745,1,0,"0",1
"1035",1267,2,3,"NA",149,15,140,"lose","go","gal","e","elianto",1,1,679,1,0,"0",1
"1036",1267,2,2,"NA",95,1,90,"win","go","gw","f","elianto",1,1,632.199999988079,1,0,"+10",2
"1037",1267,2,2,"NA",97,2,90,"win","go","gw","f","elianto",1,1,1478.69999998808,1,0,"+10",1
"1038",1267,2,2,"NA",103,3,90,"win","go","gw","f","elianto",1,1,820.600000023842,1,0,"+10",1
"1039",1267,2,2,"NA",108,4,90,"win","go","gw","f","elianto",1,1,685.800000011921,1,0,"+10",1
"1040",1267,2,2,"NA",111,5,90,"win","go","gw","f","elianto",1,1,267.100000023842,1,0,"+10",3
"1041",1267,2,2,"NA",116,6,90,"win","go","gw","f","elianto",1,1,351.700000047684,1,1,"0",1
"1042",1267,2,2,"NA",117,7,90,"win","go","gw","f","elianto",1,1,660.5,1,0,"+10",1
"1043",1267,2,2,"NA",123,8,90,"win","go","gw","f","elianto",1,1,1977.30000001192,1,0,"+10",1
"1044",1267,2,2,"NA",128,9,90,"win","go","gw","f","elianto",1,1,658.100000023842,1,0,"+10",2
"1045",1267,2,2,"NA",129,10,90,"win","go","gw","f","elianto",1,1,174.699999988079,1,0,"+10",1
"1046",1267,2,2,"NA",134,11,90,"win","go","gw","f","elianto",1,1,1616.80000001192,1,0,"+10",1
"1047",1267,2,2,"NA",139,12,90,"win","go","gw","f","elianto",1,1,657.399999976158,1,0,"+10",3
"1048",1267,2,2,"NA",22,13,90,"win","go","gw","f","elianto",1,1,555.900000002235,1,0,"+10",2
"1049",1267,2,2,"NA",26,14,90,"win","go","gw","f","elianto",1,1,631.5,1,0,"+10",1
"1050",1267,2,2,"NA",29,15,90,"win","go","gw","f","elianto",1,1,727.099999997765,1,1,"0",2
"1051",1267,2,3,"NA",142,1,180,"lose","go","gal","g","elianto",1,0,NA,0,0,"-10",1
"1052",1267,2,3,"NA",146,2,180,"lose","go","gal","g","elianto",1,1,280.199999988079,1,0,"0",2
"1053",1267,2,3,"NA",152,3,180,"lose","go","gal","g","elianto",1,1,300.199999988079,1,0,"0",1
"1054",1267,2,3,"NA",156,4,180,"lose","go","gal","g","elianto",1,1,409.099999964237,1,0,"0",1
"1055",1267,2,3,"NA",159,5,180,"lose","go","gal","g","elianto",1,1,659.100000023842,1,0,"0",2
"1056",1267,2,3,"NA",161,6,180,"lose","go","gal","g","elianto",1,1,1938.39999997616,1,0,"0",1
"1057",1267,2,3,"NA",168,7,180,"lose","go","gal","g","elianto",1,0,NA,0,1,"0",0
"1058",1267,2,3,"NA",172,8,180,"lose","go","gal","g","elianto",1,1,524.199999988079,1,0,"0",1
"1059",1267,2,3,"NA",178,9,180,"lose","go","gal","g","elianto",1,1,445.100000023842,1,0,"0",1
"1060",1267,2,3,"NA",184,10,180,"lose","go","gal","g","elianto",1,0,NA,0,0,"-10",0
"1061",1267,2,3,"NA",185,11,180,"lose","go","gal","g","elianto",1,0,NA,0,0,"-10",1
"1062",1267,2,3,"NA",191,12,180,"lose","go","gal","g","elianto",1,0,NA,0,0,"-10",0
"1063",1267,2,3,"NA",194,13,180,"lose","go","gal","g","elianto",1,1,468.800000011921,1,0,"0",3
"1064",1267,2,3,"NA",198,14,180,"lose","go","gal","g","elianto",1,0,NA,0,1,"0",0
"1065",1267,2,3,"NA",208,15,180,"lose","go","gal","g","elianto",1,1,722.400000002235,1,0,"0",3
"1066",1267,2,2,"NA",22,1,20,"lose","no-go","ngal","h","elianto",0,1,100.699999988079,0,0,"-10",2
"1067",1267,2,2,"NA",28,2,20,"lose","no-go","ngal","h","elianto",0,1,210.300000011921,0,1,"0",2
"1068",1267,2,2,"NA",29,3,20,"lose","no-go","ngal","h","elianto",0,0,NA,1,1,"-10",2
"1069",1267,2,2,"NA",36,4,20,"lose","no-go","ngal","h","elianto",0,1,1344.5,0,0,"-10",1
"1070",1267,2,2,"NA",38,5,20,"lose","no-go","ngal","h","elianto",0,1,379.899999976158,0,0,"-10",1
"1071",1267,2,2,"NA",43,6,20,"lose","no-go","ngal","h","elianto",0,1,572.800000011921,0,0,"-10",2
"1072",1267,2,2,"NA",48,7,20,"lose","no-go","ngal","h","elianto",0,1,1756.10000002384,0,0,"-10",1
"1073",1267,2,2,"NA",52,8,20,"lose","no-go","ngal","h","elianto",0,1,337.199999988079,0,1,"0",2
"1074",1267,2,2,"NA",56,9,20,"lose","no-go","ngal","h","elianto",0,1,181.100000023842,0,0,"-10",2
"1075",1267,2,2,"NA",60,10,20,"lose","no-go","ngal","h","elianto",0,1,373.300000011921,0,0,"-10",1
"1076",1267,2,2,"NA",62,11,20,"lose","no-go","ngal","h","elianto",0,1,976,0,0,"-10",2
"1077",1267,2,2,"NA",68,12,20,"lose","no-go","ngal","h","elianto",0,1,693.300000011921,0,0,"-10",1
"1078",1267,2,2,"NA",75,13,20,"lose","no-go","ngal","h","elianto",0,1,740,0,0,"-10",2
"1079",1267,2,2,"NA",77,14,20,"lose","no-go","ngal","h","elianto",0,1,517.899999976158,0,0,"-10",1
"1080",1267,2,2,"NA",81,15,20,"lose","no-go","ngal","h","elianto",0,1,916.699999988079,0,0,"-10",1
"1081",1267,2,3,"NA",223,1,130,"win","no-go","ngw","j","elianto",0,1,1386.89999997616,0,0,"0",1
"1082",1267,2,3,"NA",226,2,130,"win","no-go","ngw","j","elianto",0,1,323.899999976158,0,0,"0",2
"1083",1267,2,3,"NA",231,3,130,"win","no-go","ngw","j","elianto",0,1,550.199999988079,0,0,"0",1
"1084",1267,2,3,"NA",233,4,130,"win","no-go","ngw","j","elianto",0,1,479.400000035763,0,0,"0",1
"1085",1267,2,3,"NA",241,5,130,"win","no-go","ngw","j","elianto",0,1,338.5,0,1,"+10",1
"1086",1267,2,3,"NA",245,6,130,"win","no-go","ngw","j","elianto",0,1,1086.5,0,0,"0",1
"1087",1267,2,3,"NA",249,7,130,"win","no-go","ngw","j","elianto",0,0,NA,1,1,"0",1
"1088",1267,2,3,"NA",253,8,130,"win","no-go","ngw","j","elianto",0,1,1333.89999997616,0,1,"+10",2
"1089",1267,2,3,"NA",260,9,130,"win","no-go","ngw","j","elianto",0,1,1904.29999995232,0,0,"0",2
"1090",1267,2,3,"NA",142,10,130,"lose","go","gal","j","elianto",1,1,1525.5,1,0,"0",2
"1091",1267,2,3,"NA",147,11,130,"lose","go","gal","j","elianto",1,1,405.70000000298,1,0,"0",1
"1092",1267,2,3,"NA",151,12,130,"lose","go","gal","j","elianto",1,1,391.300000000745,1,0,"0",1
"1093",1267,2,3,"NA",153,13,130,"lose","go","gal","j","elianto",1,0,NA,0,0,"-10",0
"1094",1267,2,3,"NA",157,14,130,"lose","go","gal","j","elianto",1,1,87.6999999992549,1,0,"0",4
"1095",1267,2,3,"NA",162,15,130,"lose","go","gal","j","elianto",1,1,264.900000002235,1,0,"0",2
"1096",1267,2,3,"NA",141,1,190,"win","go","gw","l","elianto",1,1,1528.60000002384,1,0,"+10",1
"1097",1267,2,3,"NA",148,2,190,"win","go","gw","l","elianto",1,1,305.700000047684,1,0,"+10",2
"1098",1267,2,3,"NA",151,3,190,"win","go","gw","l","elianto",1,1,239.700000047684,1,0,"+10",1
"1099",1267,2,3,"NA",155,4,190,"win","go","gw","l","elianto",1,1,513.199999988079,1,0,"+10",2
"1100",1267,2,3,"NA",160,5,190,"win","go","gw","l","elianto",1,1,358.399999976158,1,1,"0",2
"1101",1267,2,3,"NA",164,6,190,"win","go","gw","l","elianto",1,0,NA,0,0,"0",0
"1102",1267,2,3,"NA",171,7,190,"win","go","gw","l","elianto",1,1,637.699999988079,1,0,"+10",1
"1103",1267,2,3,"NA",176,8,190,"win","go","gw","l","elianto",1,0,NA,0,0,"0",2
"1104",1267,2,3,"NA",179,9,190,"win","go","gw","l","elianto",1,1,663.5,1,0,"+10",2
"1105",1267,2,3,"NA",183,10,190,"win","go","gw","l","elianto",1,1,32.8000000119209,1,0,"+10",1
"1106",1267,2,3,"NA",186,11,190,"win","go","gw","l","elianto",1,0,NA,0,1,"+10",2
"1107",1267,2,3,"NA",189,12,190,"win","go","gw","l","elianto",1,0,NA,0,0,"0",0
"1108",1267,2,3,"NA",196,13,190,"win","go","gw","l","elianto",1,1,732.300000011921,1,0,"+10",1
"1109",1267,2,3,"NA",213,14,190,"win","go","gw","l","elianto",1,1,388.300000000745,1,0,"+10",5
"1110",1267,2,3,"NA",217,15,190,"win","go","gw","l","elianto",1,1,552.400000002235,1,0,"+10",6
"1111",1267,2,2,"NA",21,1,40,"lose","go","gal","m","elianto",1,0,NA,0,0,"-10",1
"1112",1267,2,2,"NA",26,2,40,"lose","go","gal","m","elianto",1,1,781.899999976158,1,0,"0",1
"1113",1267,2,2,"NA",32,3,40,"lose","go","gal","m","elianto",1,1,626.100000023842,1,0,"0",3
"1114",1267,2,2,"NA",33,4,40,"lose","go","gal","m","elianto",1,1,719.800000011921,1,0,"0",2
"1115",1267,2,2,"NA",40,5,40,"lose","go","gal","m","elianto",1,1,1698.89999997616,1,1,"-10",2
"1116",1267,2,2,"NA",41,6,40,"lose","go","gal","m","elianto",1,1,520.600000023842,1,0,"0",1
"1117",1267,2,2,"NA",45,7,40,"lose","go","gal","m","elianto",1,1,620,1,1,"-10",1
"1118",1267,2,2,"NA",51,8,40,"lose","go","gal","m","elianto",1,1,137.399999976158,1,1,"-10",3
"1119",1267,2,2,"NA",53,9,40,"lose","go","gal","m","elianto",1,1,351.899999976158,1,1,"-10",2
"1120",1267,2,2,"NA",102,10,40,"win","no-go","ngw","m","elianto",0,1,1219.19999999925,0,0,"0",3
"1121",1267,2,2,"NA",107,11,40,"win","no-go","ngw","m","elianto",0,1,292.300000000745,0,0,"0",2
"1122",1267,2,2,"NA",112,12,40,"win","no-go","ngw","m","elianto",0,1,150.5,0,0,"0",2
"1123",1267,2,2,"NA",114,13,40,"win","no-go","ngw","m","elianto",0,1,1032.19999999925,0,0,"0",2
"1124",1267,2,2,"NA",124,14,40,"win","no-go","ngw","m","elianto",0,1,1061.80000000075,0,0,"0",3
"1125",1267,2,2,"NA",127,15,40,"win","no-go","ngw","m","elianto",0,1,24.5999999977648,0,0,"0",2
"1126",1267,2,2,"NA",101,1,100,"win","go","gw","n","elianto",1,1,206.5,1,0,"+10",1
"1127",1267,2,2,"NA",106,2,100,"win","go","gw","n","elianto",1,1,313.099999964237,1,0,"+10",1
"1128",1267,2,2,"NA",112,3,100,"win","go","gw","n","elianto",1,1,508.699999988079,1,0,"+10",1
"1129",1267,2,2,"NA",113,4,100,"win","go","gw","n","elianto",1,1,1827.19999998808,1,0,"+10",1
"1130",1267,2,2,"NA",119,5,100,"win","go","gw","n","elianto",1,1,306.100000023842,1,0,"+10",1
"1131",1267,2,2,"NA",122,6,100,"win","go","gw","n","elianto",1,1,55.5,1,0,"+10",1
"1132",1267,2,2,"NA",126,7,100,"win","go","gw","n","elianto",1,1,743.5,1,1,"0",1
"1133",1267,2,2,"NA",131,8,100,"win","go","gw","n","elianto",1,1,67.1999999880791,1,0,"+10",1
"1134",1267,2,2,"NA",135,9,100,"win","go","gw","n","elianto",1,1,1138.60000002384,1,1,"0",1
"1135",1267,2,2,"NA",137,10,100,"win","go","gw","n","elianto",1,1,878.199999988079,1,0,"+10",1
"1136",1267,2,2,"NA",21,11,100,"lose","no-go","ngal","n","elianto",0,1,676.39999999851,0,1,"0",1
"1137",1267,2,2,"NA",28,12,100,"lose","no-go","ngal","n","elianto",0,1,306.800000000745,0,0,"-10",2
"1138",1267,2,2,"NA",30,13,100,"lose","no-go","ngal","n","elianto",0,1,606.199999999255,0,0,"-10",1
"1139",1267,2,2,"NA",36,14,100,"lose","no-go","ngal","n","elianto",0,1,279,0,0,"-10",2
"1140",1267,2,2,"NA",40,15,100,"lose","no-go","ngal","n","elianto",0,1,609,0,0,"-10",2
"1141",1267,2,3,"NA",166,1,160,"win","no-go","ngw","p","elianto",0,0,NA,1,0,"+10",0
"1142",1267,2,3,"NA",169,2,160,"win","no-go","ngw","p","elianto",0,0,NA,1,0,"+10",0
"1143",1267,2,3,"NA",173,3,160,"win","no-go","ngw","p","elianto",0,1,1969.40000003576,0,0,"0",1
"1144",1267,2,3,"NA",180,4,160,"win","no-go","ngw","p","elianto",0,1,121.400000035763,0,0,"0",3
"1145",1267,2,3,"NA",181,5,160,"win","no-go","ngw","p","elianto",0,1,786,0,0,"0",3
"1146",1267,2,3,"NA",188,6,160,"win","no-go","ngw","p","elianto",0,0,NA,1,1,"0",0
"1147",1267,2,3,"NA",192,7,160,"win","no-go","ngw","p","elianto",0,1,1391.39999997616,0,0,"0",3
"1148",1267,2,3,"NA",195,8,160,"win","no-go","ngw","p","elianto",0,1,449.599999964237,0,0,"0",2
"1149",1267,2,3,"NA",197,9,160,"win","no-go","ngw","p","elianto",0,1,579.5,0,0,"0",2
"1150",1267,2,3,"NA",201,10,160,"win","no-go","ngw","p","elianto",0,1,348.699999988079,0,0,"0",1
"1151",1267,2,3,"NA",207,11,160,"win","no-go","ngw","p","elianto",0,1,246.199999988079,0,0,"0",1
"1152",1267,2,3,"NA",209,12,160,"win","no-go","ngw","p","elianto",0,1,179,0,0,"0",1
"1153",1267,2,3,"NA",186,13,160,"win","no-go","ngw","p","elianto",0,1,116.10000000149,0,0,"0",1
"1154",1267,2,3,"NA",191,14,160,"win","no-go","ngw","p","elianto",0,1,670.89999999851,0,0,"0",3
"1155",1267,2,3,"NA",193,15,160,"win","no-go","ngw","p","elianto",0,1,12.3000000007451,0,1,"+10",1
"1156",1267,2,2,"NA",23,1,30,"win","no-go","ngw","r","elianto",0,1,611.899999976158,0,0,"0",1
"1157",1267,2,2,"NA",27,2,30,"win","no-go","ngw","r","elianto",0,1,726.199999988079,0,1,"+10",1
"1158",1267,2,2,"NA",30,3,30,"win","no-go","ngw","r","elianto",0,1,328.300000011921,0,0,"0",3
"1159",1267,2,2,"NA",34,4,30,"win","no-go","ngw","r","elianto",0,1,936,0,0,"0",2
"1160",1267,2,2,"NA",39,5,30,"win","no-go","ngw","r","elianto",0,1,718.300000011921,0,0,"0",3
"1161",1267,2,2,"NA",42,6,30,"win","no-go","ngw","r","elianto",0,1,28.6999999880791,0,0,"0",2
"1162",1267,2,2,"NA",47,7,30,"win","no-go","ngw","r","elianto",0,0,NA,1,1,"0",1
"1163",1267,2,2,"NA",49,8,30,"win","no-go","ngw","r","elianto",0,1,237.799999952316,0,1,"+10",1
"1164",1267,2,2,"NA",54,9,30,"win","no-go","ngw","r","elianto",0,1,419.399999976158,0,0,"0",2
"1165",1267,2,2,"NA",57,10,30,"win","no-go","ngw","r","elianto",0,1,439.300000011921,0,0,"0",3
"1166",1267,2,2,"NA",61,11,30,"win","no-go","ngw","r","elianto",0,1,128,0,0,"0",1
"1167",1267,2,2,"NA",66,12,30,"win","no-go","ngw","r","elianto",0,1,965.5,0,0,"0",1
"1168",1267,2,2,"NA",71,13,30,"win","no-go","ngw","r","elianto",0,1,144.800000011921,0,1,"+10",1
